Timestamp,ax,ay,az,gx,gy,gz,roll,pitch,yaw
2026-09-21 21:40:24.188344320,0.8666435546874999,-4.424191406249999,9.19073095703125,-0.2450108202872899,-0.014913702104443734,0.10652644360316953,335.82778793604604,355.0052521996848,99.52298975694858
2026-09-21 21:40:24.188344320,0.8929780273437499,-4.46489013671875,9.19551904296875,-0.2269013248747511,-0.017044230976507126,0.111852765783328,335.6867152025108,355.0240278519969,99.58503571436555
2026-09-21 21:40:24.188344320,0.81158056640625,-4.510376953124999,9.2170654296875,-0.20879182946221228,-0.01597896654047543,0.1129180302193597,335.5559796572225,355.04321932855686,99.64799579728543
2026-09-21 21:40:24.188344320,0.8211567382812499,-4.563045898437499,9.236217773437499,-0.18855180517761005,-0.019174759848570515,0.11398329465539139,335.43609423679857,355.06132652421,99.71253841029754
2026-09-21 21:40:24.188344320,0.88818994140625,-4.598956542968749,9.231429687499999,-0.16724651645697616,-0.019174759848570515,0.11078750134729631,335.3277635847547,355.07904972165437,99.77634589174467
2026-09-21 21:40:24.204011520,0.8977661132812499,-4.632473144531249,9.21227734375,-0.13954964112015208,-0.02024002428460221,0.10759170803920122,335.2349301740237,355.0950359124956,99.83842295237761
2026-09-21 21:40:24.219620608,0.9097363281249999,-4.60853271484375,9.2074892578125,-0.12037488127158157,-0.01597896654047543,0.10226538585904274,335.15431752065916,355.1118873639107,99.89669334384371
2026-09-21 21:40:24.219620608,0.9312827148437499,-4.59416845703125,9.22424755859375,-0.10226538585904274,-0.009587379924285258,0.10013485698697935,335.08469858058305,355.1306883176859,99.95154985952234
2026-09-21 21:40:24.250937088,0.9073422851562499,-4.613320800781249,9.214671386718749,-0.08522115488253562,-0.0010652644360316954,0.09480853480682087,335.0254529570927,355.1519157334366,100.00276107386397
2026-09-21 21:40:24.250937088,0.8834018554687499,-4.6109267578125,9.16200244140625,-0.07030745277809189,0.004261057744126781,0.08735168375459901,334.97516378887275,355.1762705118289,100.04895642532198
2026-09-21 21:40:24.282934784,0.8450971679687499,-4.560651855468749,9.126091796874999,-0.05645901510967985,0.0031957933080950856,0.07563377495825037,334.9328877719681,355.19860407340724,100.08875420124347
2026-09-21 21:40:24.305270528,0.8163686523437499,-4.579804199218749,9.121303710937498,-0.05006742849348968,0.0031957933080950856,0.06391586616190172,334.8973541922529,355.2183340999433,100.12307732996851
2026-09-21 21:40:24.305270528,0.7948222656249999,-4.560651855468749,9.0829990234375,-0.044741106313331204,0.009587379924285258,0.05219795736555307,334.8648710136374,355.2373420019979,100.14929136292552
2026-09-21 21:40:24.320429824,0.7924282226562499,-4.53910546875,9.0829990234375,-0.04048004856920442,0.005326322180158476,0.03834951969714103,334.83610048127764,355.25223150745444,100.16947889444556
2026-09-21 21:40:24.320429824,0.7373652343749999,-4.51755908203125,9.159608398437499,-0.03621899082507764,0.0010652644360316954,0.024501082028728992,334.81055969151123,355.262145048425,100.18361841961185
2026-09-21 21:40:24.320429824,0.75891162109375,-4.54149951171875,9.164396484374999,-0.04261057744126781,-0.0021305288720633907,0.011717908796348648,334.78358968605096,355.2669465137841,100.1921268679988
2026-09-21 21:40:24.320429824,0.7660937499999999,-4.565439941406249,9.185942871093749,-0.03728425526110934,-0.010652644360316953,-0.0021305288720633907,334.75824540664246,355.26440332325643,100.19430679499708
2026-09-21 21:40:24.320429824,0.78285205078125,-4.60853271484375,9.16679052734375,-0.03302319751698255,-0.01384843766841204,-0.02024002428460221,334.7364572398436,355.25444884237015,100.18907156147199
2026-09-21 21:40:24.337310976,0.7972163085937499,-4.665989746093749,9.12848583984375,-0.019174759848570515,-0.021305288720633905,-0.03302319751698255,334.72107685205583,355.23833754311977,100.1779632356598
2026-09-21 21:40:24.337310976,0.8570673828125,-4.613320800781249,9.145244140625,-0.0021305288720633907,-0.023435817592697295,-0.04793689962142629,334.7150550747782,355.2166369480521,100.160221803209
2026-09-21 21:40:24.352422144,0.8546733398437499,-4.59416845703125,9.1500322265625,0.009587379924285258,-0.02024002428460221,-0.05645901510967985,334.71873606664667,355.19209304343906,100.13675599762416
2026-09-21 21:40:24.367939840,0.9145244140625,-4.55586376953125,9.13327392578125,0.023435817592697295,-0.012783173232380343,-0.06285060172587002,334.730685234123,355.168794708742,100.10825686653922
2026-09-21 21:40:24.367939840,0.9097363281249999,-4.512770996093749,9.130879882812499,0.035153726389045944,-0.005326322180158476,-0.06391586616190172,334.750267217865,355.14811780581056,100.07663873994012
2026-09-21 21:40:24.383599872,0.9049482421874999,-4.4194033203125,9.142850097656249,0.044741106313331204,0.0010652644360316954,-0.0660463950339651,334.7763896822036,355.13117271690703,100.04245583761362
2026-09-21 21:40:24.383599872,0.8953720703124999,-4.35955224609375,9.181154785156249,0.04793689962142629,0.006391586616190171,-0.0660463950339651,334.8062266255411,355.1175339429342,100.00675860060086
2026-09-21 21:40:24.400976384,0.9049482421874999,-4.333217773437499,9.12369775390625,0.049002164057457984,0.011717908796348648,-0.06285060172587002,334.83710132095825,355.107868454402,99.97081572720195
2026-09-21 21:40:24.415796736,0.7924282226562499,-4.34039990234375,9.16200244140625,0.044741106313331204,0.010652644360316953,-0.06072007285380663,334.86650784754653,355.0982310385989,99.93597345792102
2026-09-21 21:40:24.432098816,0.8163686523437499,-4.34518798828125,9.20509521484375,0.03834951969714103,0.007456851052221867,-0.05858954398174324,334.8919527616623,355.08928966874953,99.90261462640596
2026-09-21 21:40:24.432098816,0.8570673828125,-4.318853515624999,9.185942871093749,0.03408846195301425,0.005326322180158476,-0.05752427954571154,334.9152088784975,355.07957214558473,99.87059820718152
2026-09-21 21:40:24.447637248,0.7948222656249999,-4.297307128906249,9.2074892578125,0.03195793308095086,0.0,-0.05645901510967985,334.9361520850692,355.06691043988087,99.84056137358297
2026-09-21 21:40:24.447637248,0.8546733398437499,-4.3212475585937495,9.22424755859375,0.022370553156665602,-0.0031957933080950856,-0.05539375067364816,334.95351601508867,355.0524264252591,99.81154316240358
2026-09-21 21:40:24.478434048,0.8403090820312499,-4.3427939453125,9.2074892578125,0.017044230976507126,-0.005326322180158476,-0.05113269292952137,334.96678209944014,355.03777256037523,99.78514812247977
2026-09-21 21:40:24.478434048,0.91213037109375,-4.316459472656249,9.2170654296875,0.010652644360316953,-0.007456851052221867,-0.04793689962142629,334.97622498770056,355.02259476522045,99.76161119798502
2026-09-21 21:40:24.493921792,0.88818994140625,-4.3906748046874995,9.231429687499999,0.0010652644360316954,-0.005326322180158476,-0.043675841877299504,334.9810201267866,355.0082688768155,99.73919876754609
2026-09-21 21:40:24.499015424,0.9264946289062499,-4.39306884765625,9.164396484374999,0.0,-0.0021305288720633907,-0.03834951969714103,334.98231571774045,354.99649709963774,99.71899010096055
2026-09-21 21:40:24.503010816,0.9504350585937499,-4.424191406249999,9.2457939453125,0.0010652644360316954,-0.0010652644360316954,-0.03621899082507764,334.9838526608807,354.9863052820537,99.70005408389171
2026-09-21 21:40:24.510016512,0.8953720703124999,-4.460102050781249,9.248187988281249,-0.0010652644360316954,0.0021305288720633907,-0.03195793308095086,334.984405197008,354.9790048739054,99.681997214754
2026-09-21 21:40:24.527020544,0.94564697265625,-4.440949707031249,9.214671386718749,0.0,0.010652644360316953,-0.02876213977285577,334.9840991666007,354.9767358275331,99.66384197071363
2026-09-21 21:40:24.527020544,0.9073422851562499,-4.369128417968749,9.2170654296875,0.0031957933080950856,0.01597896654047543,-0.02876213977285577,334.986798793594,354.97715825355823,99.64452562613624
2026-09-21 21:40:24.541658112,0.8786137695312499,-4.352370117187499,9.1787607421875,-0.0031957933080950856,0.014913702104443734,-0.029827404208887468,334.9871191370654,354.9780401372533,99.62487496008461
2026-09-21 21:40:24.541658112,0.9001601562499999,-4.376310546875,9.17397265625,-0.01597896654047543,0.014913702104443734,-0.03302319751698255,334.97999324996624,354.9800487463153,99.60389421830048
2026-09-21 21:40:24.557357824,0.9049482421874999,-4.402645019531249,9.22903564453125,-0.021305288720633905,0.012783173232380343,-0.03408846195301425,334.9679066944486,354.9797031206056,99.58221250950187
2026-09-21 21:40:24.572925952,0.9025541992187499,-4.39785693359375,9.23382373046875,-0.02024002428460221,0.012783173232380343,-0.03621899082507764,334.95668611842416,354.9782972345171,99.55993945949781
2026-09-21 21:40:24.572925952,0.9241005859374999,-4.4433437499999995,9.23861181640625,-0.022370553156665602,0.01810949541253882,-0.03728425526110934,334.94405683259487,354.97848407391933,99.53580035924858
2026-09-21 21:40:24.590899200,0.8857958984375,-4.457708007812499,9.214671386718749,-0.021305288720633905,0.023435817592697295,-0.03728425526110934,334.9320884784357,354.9812270241024,99.5104978426293
2026-09-21 21:40:24.590899200,0.8546733398437499,-4.45052587890625,9.0782109375,-0.01810949541253882,0.02769687533682408,-0.03621899082507764,334.92119560540476,354.98711751126524,99.48449653727059
2026-09-21 21:40:24.620508928,0.8259448242187499,-4.438555664062499,9.15721435546875,-0.012783173232380343,0.030892668644919165,-0.03621899082507764,334.912903231376,354.99527365092024,99.4578799829453
2026-09-21 21:40:24.653310464,0.8139746093749999,-4.3810986328125,9.185942871093749,-0.011717908796348648,0.029827404208887468,-0.03728425526110934,334.9064305632912,355.0027514373063,99.43104596793938
2026-09-21 21:40:24.654967552,0.775669921875,-4.424191406249999,9.106939453125,-0.01810949541253882,0.025566346464760685,-0.04048004856920442,334.89737947349965,355.0091128020099,99.4034552769854
2026-09-21 21:40:24.668144896,0.78524609375,-4.440949707031249,9.176366699218748,-0.01810949541253882,0.019174759848570515,-0.04154531300523612,334.8870455547712,355.0115007260762,99.37622282855769
2026-09-21 21:40:24.683701504,0.7876401367187499,-4.44573779296875,9.1548203125,-0.01597896654047543,0.014913702104443734,-0.04261057744126781,334.87757696259547,355.011328524704,99.34920100236056
2026-09-21 21:40:24.683701504,0.8211567382812499,-4.512770996093749,9.19073095703125,-0.014913702104443734,0.009587379924285258,-0.04261057744126781,334.86850564710227,355.00834499933745,99.32348869672617
2026-09-21 21:40:24.683701504,0.8379150390625,-4.460102050781249,9.176366699218748,-0.005326322180158476,0.009587379924285258,-0.04048004856920442,334.8637831953588,355.00458641168785,99.29888100059851
2026-09-21 21:40:24.683701504,0.86185546875,-4.4672841796875,9.1548203125,0.0,0.010652644360316953,-0.03728425526110934,334.8631256147282,355.00191431035586,99.27565819976863
2026-09-21 21:40:24.683701504,0.8570673828125,-4.46249609375,9.193124999999998,0.0031957933080950856,0.014913702104443734,-0.03302319751698255,334.86497231776855,355.00183248490185,99.25385702631243
2026-09-21 21:40:24.705120256,0.8498852539062499,-4.440949707031249,9.176366699218748,0.007456851052221867,0.01597896654047543,-0.030892668644919165,334.86931584477463,355.0029243092215,99.23264490890949
2026-09-21 21:40:24.720222976,0.83552099609375,-4.4265854492187495,9.183548828125,0.010652644360316953,0.01810949541253882,-0.029827404208887468,334.876510161847,355.005639153264,99.2123860496863
2026-09-21 21:40:24.726617600,0.8403090820312499,-4.414615234375,9.1787607421875,0.009587379924285258,0.01810949541253882,-0.02769687533682408,334.88259899323555,355.00907030581925,99.19284078311297
2026-09-21 21:40:24.738612992,0.8283388671874999,-4.371522460937499,9.176366699218748,0.010652644360316953,0.01597896654047543,-0.02663161090079238,334.8896496136527,355.0120316447522,99.17410029794155
2026-09-21 21:40:24.748801280,0.8020043945312499,-4.3810986328125,9.209883300781248,0.007456851052221867,0.014913702104443734,-0.024501082028728992,334.8957565010501,355.01499782122147,99.15654895485356
2026-09-21 21:40:24.755266304,0.80679248046875,-4.3739165039062495,9.16679052734375,0.006391586616190171,0.012783173232380343,-0.024501082028728992,334.90068109185916,355.016880211842,99.13991467454862
2026-09-21 21:40:24.771984384,0.77806396484375,-4.45052587890625,9.17157861328125,0.004261057744126781,0.009587379924285258,-0.024501082028728992,334.9048821068633,355.0172164288112,99.1243657885727
2026-09-21 21:40:24.771984384,0.81158056640625,-4.37870458984375,9.20509521484375,0.009587379924285258,0.006391586616190171,-0.023435817592697295,334.90990624805397,355.01647951248884,99.11034844283608
2026-09-21 21:40:24.788550400,0.86185546875,-4.385886718749999,9.17157861328125,0.007456851052221867,0.005326322180158476,-0.02024002428460221,334.91530166423246,355.01520117582004,99.09776027368181
2026-09-21 21:40:24.788550400,0.8474912109374999,-4.39306884765625,9.23861181640625,0.006391586616190171,0.007456851052221867,-0.017044230976507126,334.91937229042145,355.01519143676313,99.08579342970691
2026-09-21 21:40:24.807766272,0.8211567382812499,-4.36434033203125,9.17397265625,0.008522115488253563,0.008522115488253563,-0.01384843766841204,334.9246085247256,355.01644272793686,99.07562996208273
2026-09-21 21:40:24.820957184,0.8810078124999999,-4.41222119140625,9.20030712890625,0.010652644360316953,0.009587379924285258,-0.010652644360316953,334.9303413670899,355.0189732951202,99.06699990757282
2026-09-21 21:40:24.822740480,0.86424951171875,-4.43137353515625,9.209883300781248,0.014913702104443734,0.010652644360316953,-0.008522115488253563,334.9383513679555,355.02271662087674,99.05897059225755
2026-09-21 21:40:24.837552128,0.8474912109374999,-4.4074331054687494,9.27212841796875,0.023435817592697295,0.008522115488253563,-0.010652644360316953,334.95069131803103,355.0259123052466,99.05134957132013
2026-09-21 21:40:24.848193280,0.7972163085937499,-4.41222119140625,9.236217773437499,0.02769687533682408,0.008522115488253563,-0.010652644360316953,334.9664803167472,355.028275430295,99.04312572989244
2026-09-21 21:40:24.863090432,0.8211567382812499,-4.3739165039062495,9.12848583984375,0.035153726389045944,0.007456851052221867,-0.012783173232380343,334.98535183378885,355.0304987272396,99.03434882321389
2026-09-21 21:40:24.866092032,0.8427031249999999,-4.33082373046875,9.241005859374999,0.04048004856920442,0.004261057744126781,-0.01810949541253882,335.0086006173224,355.0300810846213,99.02372594915066
2026-09-21 21:40:24.879111424,0.833126953125,-4.30927734375,9.164396484374999,0.03408846195301425,0.0031957933080950856,-0.022370553156665602,335.030221394527,355.02771398133467,99.01189232840562
2026-09-21 21:40:24.888515072,0.8379150390625,-4.299701171874999,9.197913085937499,0.02769687533682408,0.004261057744126781,-0.024501082028728992,335.04793875608937,355.02512854960474,98.99789270148584
2026-09-21 21:40:24.888515072,0.81158056640625,-4.2853369140624995,9.269734374999999,0.023435817592697295,0.0031957933080950856,-0.02876213977285577,335.0640332057705,355.02066614404214,98.98187209106057
2026-09-21 21:40:24.904889600,0.8450971679687499,-4.352370117187499,9.23861181640625,0.008522115488253563,0.004261057744126781,-0.03302319751698255,335.0737209586462,355.01638685860826,98.96350926767643
2026-09-21 21:40:24.904889600,0.7445473632812499,-4.39306884765625,9.260158203125,0.004261057744126781,0.0010652644360316954,-0.03834951969714103,335.07743742010433,355.00957686972953,98.9433734208817
2026-09-21 21:40:24.921241600,0.7636997070312499,-4.385886718749999,9.26255224609375,0.004261057744126781,-0.0021305288720633907,-0.049002164057457984,335.08283925857717,354.9990917304131,98.91953414139971
2026-09-21 21:40:24.935605504,0.8211567382812499,-4.421797363281249,9.260158203125,0.0031957933080950856,-0.009587379924285258,-0.05858954398174324,335.0875257690484,354.98189016158915,98.89195519142196
2026-09-21 21:40:24.950609664,0.9384648437499999,-4.440949707031249,9.1500322265625,0.008522115488253563,-0.012783173232380343,-0.06711165946999681,335.0935675925634,354.9598925410732,98.86100259516148
2026-09-21 21:40:24.953077248,0.9193125,-4.352370117187499,9.281704589843748,0.017044230976507126,-0.012783173232380343,-0.07456851052221868,335.10483419890227,354.9352451776147,98.82578002683348
2026-09-21 21:40:24.953077248,0.9791635742187499,-4.34518798828125,9.21227734375,0.01597896654047543,-0.005326322180158476,-0.07776430383031376,335.1181137226588,354.91274135423447,98.78694351059595
2026-09-21 21:40:24.982456064,1.00789208984375,-4.3380058593749995,9.209883300781248,0.022370553156665602,0.0021305288720633907,-0.07989483270237714,335.1327916541495,354.8931994031184,98.74509221426493
2026-09-21 21:40:24.982456064,0.9863457031249999,-4.27097265625,9.106939453125,0.025566346464760685,0.010652644360316953,-0.07669903939428206,335.1505378618157,354.8781004172045,98.70199026970788
2026-09-21 21:40:25.013731328,0.9528291015624999,-4.2685786132812495,9.22903564453125,0.023435817592697295,0.021305288720633905,-0.07456851052221868,335.1684508918431,354.86909421336077,98.657519210759
2026-09-21 21:40:25.044446976,0.9264946289062499,-4.263790527343749,9.17397265625,0.01810949541253882,0.02769687533682408,-0.07137271721412358,335.18362177051137,354.8652644970377,98.61288691537453
2026-09-21 21:40:25.045445632,0.8235507812499999,-4.261396484375,9.21227734375,0.01810949541253882,0.024501082028728992,-0.0692421883420602,335.19794445947065,354.8620997848699,98.56978206938676
2026-09-21 21:40:25.049563904,0.8211567382812499,-4.266184570312499,9.181154785156249,0.01597896654047543,0.021305288720633905,-0.0681769239060285,335.210721136788,354.8583274643588,98.52799475919836
2026-09-21 21:40:25.052576000,0.8498852539062499,-4.2853369140624995,9.257764160156249,0.014913702104443734,0.01597896654047543,-0.06391586616190172,335.2230478904334,354.8531632123338,98.4890219493543
2026-09-21 21:40:25.057387776,0.8666435546874999,-4.2685786132812495,9.20509521484375,0.012783173232380343,0.009587379924285258,-0.06285060172587002,335.23443118241835,354.8453437991288,98.45283118673616
2026-09-21 21:40:25.057387776,0.86185546875,-4.2159096679687496,9.159608398437499,0.009587379924285258,0.006391586616190171,-0.05645901510967985,335.2433422397392,354.8360294730407,98.41964688986474
2026-09-21 21:40:25.057387776,0.88818994140625,-4.2326679687499995,9.274522460937499,0.0021305288720633907,0.004261057744126781,-0.049002164057457984,335.2489429783763,354.82651297330176,98.39148812760982
2026-09-21 21:40:25.074245888,0.9097363281249999,-4.247032226562499,9.23861181640625,-0.0031957933080950856,0.005326322180158476,-0.04154531300523612,335.2498480054025,354.8197818162771,98.36697057876601
2026-09-21 21:40:25.089301504,0.9528291015624999,-4.27815478515625,9.260158203125,-0.005326322180158476,0.007456851052221867,-0.029827404208887468,335.2475285032234,354.81680964827706,98.34743525614199
2026-09-21 21:40:25.093296384,0.9001601562499999,-4.280548828124999,9.26734033203125,-0.012783173232380343,0.008522115488253563,-0.02024002428460221,335.24194411488514,354.81650433435925,98.33303610810378
2026-09-21 21:40:25.129501696,0.9193125,-4.25900244140625,9.30085693359375,-0.01597896654047543,0.008522115488253563,-0.012783173232380343,335.2332272924572,354.8183299273383,98.32213236867806
2026-09-21 21:40:25.133106688,0.9432529296875,-4.244638183593749,9.279310546875,-0.01810949541253882,0.006391586616190171,-0.004261057744126781,335.2235196685662,354.8213882756283,98.31630855281755
2026-09-21 21:40:25.136186624,0.9097363281249999,-4.266184570312499,9.25058203125,-0.025566346464760685,0.008522115488253563,0.0031957933080950856,335.2097155252808,354.8270551370369,98.3148321197129
2026-09-21 21:40:25.142571008,0.8714316406249999,-4.29251904296875,9.2170654296875,-0.02769687533682408,0.008522115488253563,0.012783173232380343,335.1930178845135,354.8358832955917,98.31785776956725
2026-09-21 21:40:25.146448384,0.86424951171875,-4.27336669921875,9.317615234375,-0.030892668644919165,0.005326322180158476,0.017044230976507126,335.17427372292866,354.8449196588238,98.32472768010398
2026-09-21 21:40:25.159232256,0.85946142578125,-4.3020952148437495,9.248187988281249,-0.03728425526110934,0.0010652644360316954,0.02024002428460221,335.15233024334765,354.8527810210638,98.33480843853894
2026-09-21 21:40:25.167330048,0.8498852539062499,-4.316459472656249,9.183548828125,-0.04048004856920442,-0.005326322180158476,0.021305288720633905,335.1275038222068,354.85695157223205,98.34633853662038
2026-09-21 21:40:25.171246848,0.85946142578125,-4.318853515624999,9.22424755859375,-0.04154531300523612,-0.007456851052221867,0.023435817592697295,335.1023927966756,354.859663457987,98.36016645822669
2026-09-21 21:40:25.171246848,0.9600112304687499,-4.31167138671875,9.1787607421875,-0.044741106313331204,-0.008522115488253563,0.025566346464760685,335.07599719305824,354.8621226122729,98.37535773467769
2026-09-21 21:40:25.186974720,1.00310400390625,-4.357158203125,9.19073095703125,-0.0458063707493629,-0.004261057744126781,0.02876213977285577,335.04768126910864,354.8663270400257,98.39144074715001
2026-09-21 21:40:25.207180288,0.9360708007812499,-4.36434033203125,9.169184570312499,-0.039414784133172724,0.0,0.030892668644919165,335.02080380941305,354.87301612255646,98.4075044255287
2026-09-21 21:40:25.213056000,0.94564697265625,-4.335611816406249,9.22903564453125,-0.03621899082507764,0.0021305288720633907,0.030892668644919165,334.99626376575765,354.88245582864437,98.42295034274302
2026-09-21 21:40:25.227121664,0.9073422851562499,-4.395462890625,9.193124999999998,-0.03728425526110934,0.006391586616190171,0.02876213977285577,334.9727657116518,354.89301692123297,98.43716003459552
2026-09-21 21:40:25.238796800,0.9049482421874999,-4.39306884765625,9.17157861328125,-0.03302319751698255,0.006391586616190171,0.024501082028728992,334.95039798943037,354.9038458364606,98.44905930493275
2026-09-21 21:40:25.244935424,0.9145244140625,-4.46489013671875,9.183548828125,-0.03195793308095086,0.006391586616190171,0.02024002428460221,334.9293053799492,354.91329992902075,98.45847148756768
2026-09-21 21:40:25.254677760,0.94085888671875,-4.4074331054687494,9.15721435546875,-0.029827404208887468,0.006391586616190171,0.01384843766841204,334.90885870246603,354.92173131322073,98.46512368351469
2026-09-21 21:40:25.271369728,0.9193125,-4.43616162109375,9.24339990234375,-0.02663161090079238,0.006391586616190171,0.010652644360316953,334.89110882915884,354.9284011945001,98.46924581590208
2026-09-21 21:40:25.271369728,0.9336767578124999,-4.4194033203125,9.214671386718749,-0.02769687533682408,0.009587379924285258,0.005326322180158476,334.87346996614,354.9354062055172,98.4699584939946
2026-09-21 21:40:25.288336640,0.9001601562499999,-4.39785693359375,9.20509521484375,-0.02769687533682408,0.010652644360316953,0.0010652644360316954,334.8557854004639,354.94168104750605,98.468590184051
2026-09-21 21:40:25.290514688,0.9336767578124999,-4.4074331054687494,9.130879882812499,-0.025566346464760685,0.010652644360316953,-0.004261057744126781,334.8397258171482,354.9472122729163,98.46402839001736
2026-09-21 21:40:25.307104512,0.8834018554687499,-4.438555664062499,9.2170654296875,-0.023435817592697295,0.010652644360316953,-0.007456851052221867,334.8247728447256,354.95223594846715,98.45756575922952
2026-09-21 21:40:25.307104512,0.9001601562499999,-4.460102050781249,9.274522460937499,-0.021305288720633905,0.010652644360316953,-0.009587379924285258,334.8112132990423,354.9567172302677,98.44953830746968
2026-09-21 21:40:25.322766848,0.8738256835937499,-4.41700927734375,9.1548203125,-0.01810949541253882,0.009587379924285258,-0.012783173232380343,334.79888434165554,354.95966145554866,98.4401442001786
2026-09-21 21:40:25.337553920,0.8762197265624999,-4.50080078125,9.1548203125,-0.01384843766841204,0.008522115488253563,-0.01384843766841204,334.7888583157594,354.9623659329848,98.43018475969585
2026-09-21 21:40:25.357304064,0.8929780273437499,-4.46967822265625,9.159608398437499,-0.008522115488253563,0.008522115488253563,-0.01384843766841204,334.7813084878684,354.9647916604589,98.42012987515442
2026-09-21 21:40:25.387529984,0.9336767578124999,-4.457708007812499,9.1404560546875,-0.007456851052221867,0.008522115488253563,-0.01384843766841204,334.7750630147077,354.96653932317315,98.40989510522667
2026-09-21 21:40:25.387529984,0.8857958984375,-4.457708007812499,9.164396484374999,-0.0021305288720633907,0.010652644360316953,-0.011717908796348648,334.77169457382655,354.96977104652655,98.3999820243982
2026-09-21 21:40:25.410452992,0.8977661132812499,-4.421797363281249,9.20509521484375,0.0,0.009587379924285258,-0.010652644360316953,334.76991698828294,354.97322227674687,98.39101775381995
2026-09-21 21:40:25.420709888,0.86424951171875,-4.395462890625,9.19073095703125,0.0,0.010652644360316953,-0.008522115488253563,334.7685229138741,354.97758969386786,98.3829901222918
2026-09-21 21:40:25.421134080,0.85946142578125,-4.4074331054687494,9.176366699218748,-0.0010652644360316954,0.009587379924285258,-0.006391586616190171,334.76704353822936,354.9824702012147,98.37617262428319
2026-09-21 21:40:25.421134080,0.8786137695312499,-4.43616162109375,9.1404560546875,-0.0010652644360316954,0.007456851052221867,-0.006391586616190171,334.76425764881395,354.98620247454505,98.37061381349999
2026-09-21 21:40:25.421134080,0.8427031249999999,-4.46249609375,9.13806201171875,-0.0031957933080950856,0.0031957933080950856,-0.004261057744126781,334.76124434021494,354.98830578564827,98.36678031536802
2026-09-21 21:40:25.421134080,0.8091865234375,-4.457708007812499,9.17397265625,-0.005326322180158476,0.0,-0.0021305288720633907,334.7572616480325,354.9890305942742,98.36471038751154
2026-09-21 21:40:25.437661952,0.8522792968749999,-4.452919921875,9.20030712890625,-0.005326322180158476,0.0,0.0,334.7534732088009,354.9894828489645,98.36373428732813
2026-09-21 21:40:25.437661952,0.8738256835937499,-4.44573779296875,9.20509521484375,-0.0010652644360316954,0.0,0.0,334.7506672043938,354.99046224003143,98.36357732816732
2026-09-21 21:40:25.454249472,0.8690375976562499,-4.46967822265625,9.19073095703125,0.0010652644360316954,0.0021305288720633907,0.0031957933080950856,334.75023519432875,354.9922544481163,98.36481661314599
2026-09-21 21:40:25.454249472,0.86185546875,-4.460102050781249,9.164396484374999,0.004261057744126781,0.006391586616190171,0.005326322180158476,334.75112124516016,354.99689242014495,98.36613640615109
2026-09-21 21:40:25.471037952,0.8762197265624999,-4.37870458984375,9.25058203125,0.009587379924285258,0.0010652644360316954,0.0031957933080950856,334.75507880288797,355.0000231339786,98.36795769848699
2026-09-21 21:40:25.486668800,0.8666435546874999,-4.41222119140625,9.2074892578125,0.007456851052221867,0.0010652644360316954,0.0031957933080950856,334.7601826192408,355.0018260469842,98.36954471477262
2026-09-21 21:40:25.487719168,0.9097363281249999,-4.4002509765625,9.1500322265625,0.005326322180158476,0.0010652644360316954,0.004261057744126781,334.7624517648779,355.0037485210948,98.3714411057946
2026-09-21 21:40:25.504282624,0.91213037109375,-4.34039990234375,9.20509521484375,0.005326322180158476,0.0021305288720633907,0.006391586616190171,334.7650202023187,355.0061865501443,98.37445385796256
2026-09-21 21:40:25.504282624,0.91691845703125,-4.333217773437499,9.236217773437499,-0.006391586616190171,0.006391586616190171,0.010652644360316953,334.76270239507676,355.0121964361742,98.37817226705614
2026-09-21 21:40:25.520947712,0.86424951171875,-4.371522460937499,9.202701171874999,-0.012783173232380343,0.012783173232380343,0.014913702104443734,334.75462537705715,355.0226546295476,98.38198084142401
2026-09-21 21:40:25.520947712,0.8211567382812499,-4.37870458984375,9.22424755859375,-0.014913702104443734,0.008522115488253563,0.010652644360316953,334.74485936264676,355.0321964238495,98.3851177287617
2026-09-21 21:40:25.538599168,0.88818994140625,-4.402645019531249,9.241005859374999,-0.02024002428460221,0.0021305288720633907,0.005326322180158476,334.7325520481468,355.03667290262183,98.38730181934424
2026-09-21 21:40:25.554364672,0.94085888671875,-4.39306884765625,9.1548203125,-0.02024002428460221,0.0,0.0021305288720633907,334.7194310691349,355.0378859241549,98.38903660556426
2026-09-21 21:40:25.554364672,0.9887397460937499,-4.424191406249999,9.202701171874999,-0.01384843766841204,0.0031957933080950856,0.004261057744126781,334.70922237318297,355.0401279630382,98.39040866409668
2026-09-21 21:40:25.571062784,0.9073422851562499,-4.414615234375,9.159608398437499,-0.012783173232380343,0.012783173232380343,0.006391586616190171,334.70007715350135,355.0470610159776,98.39081492209601
2026-09-21 21:40:25.571062784,0.890583984375,-4.4194033203125,9.16200244140625,-0.006391586616190171,0.02024002428460221,0.010652644360316953,334.69376979850244,355.06023233096687,98.39147659471676
2026-09-21 21:40:25.587553792,0.8786137695312499,-4.39306884765625,9.16200244140625,0.0,0.024501082028728992,0.011717908796348648,334.6925619058514,355.0766087012972,98.39112022419161
2026-09-21 21:40:25.604117504,0.8379150390625,-4.385886718749999,9.130879882812499,0.004261057744126781,0.02769687533682408,0.011717908796348648,334.6941364012927,355.0947835134455,98.39063406978002
2026-09-21 21:40:25.604855040,0.7996103515624999,-4.37870458984375,9.09975732421875,0.006391586616190171,0.025566346464760685,0.012783173232380343,334.6973314766754,355.11247807334684,98.39066034011175
2026-09-21 21:40:25.623558656,0.7924282226562499,-4.3427939453125,9.1787607421875,0.008522115488253563,0.024501082028728992,0.010652644360316953,334.70187379785625,355.12955574111726,98.39038688331222
2026-09-21 21:40:25.623558656,0.7996103515624999,-4.333217773437499,9.181154785156249,0.008522115488253563,0.017044230976507126,0.009587379924285258,334.70702110801824,355.14330852768705,98.39096847969383
2026-09-21 21:40:25.653996800,0.7924282226562499,-4.3547641601562495,9.21227734375,0.006391586616190171,0.012783173232380343,0.010652644360316953,334.7109492656002,355.1550620558531,98.39259030559039
2026-09-21 21:40:25.655010304,0.775669921875,-4.333217773437499,9.185942871093749,0.0021305288720633907,0.010652644360316953,0.010652644360316953,334.7127513842282,355.16538278572096,98.39556686231718
2026-09-21 21:40:25.655878400,0.7660937499999999,-4.34758203125,9.214671386718749,0.0,0.008522115488253563,0.01384843766841204,334.7128398563226,355.17447330136963,98.40013793969332
2026-09-21 21:40:25.673268736,0.8163686523437499,-4.335611816406249,9.21227734375,-0.0021305288720633907,0.006391586616190171,0.01810949541253882,334.711191878057,355.18406223504354,98.40746091416011
2026-09-21 21:40:25.691441920,0.80679248046875,-4.34039990234375,9.209883300781248,-0.008522115488253563,0.005326322180158476,0.021305288720633905,334.7055187414396,355.19397139551097,98.41616303184183
2026-09-21 21:40:25.692441344,0.8139746093749999,-4.39785693359375,9.260158203125,-0.014913702104443734,0.0021305288720633907,0.025566346464760685,334.69637001431005,355.2031869709112,98.42757811999074
2026-09-21 21:40:25.721806080,0.8043984375,-4.369128417968749,9.2170654296875,-0.019174759848570515,0.0021305288720633907,0.02876213977285577,334.6838680826725,355.2127843168307,98.44150173346137
2026-09-21 21:40:25.722536704,0.7996103515624999,-4.39306884765625,9.248187988281249,-0.024501082028728992,0.0010652644360316954,0.03302319751698255,334.66778443529705,355.22313495416086,98.45790106971816
2026-09-21 21:40:25.747704320,0.8259448242187499,-4.371522460937499,9.22424755859375,-0.02876213977285577,0.0,0.03408846195301425,334.6496751690219,355.23306840346083,98.47512373112552
2026-09-21 21:40:25.773207808,0.8187626953124999,-4.43137353515625,9.185942871093749,-0.035153726389045944,0.0021305288720633907,0.03728425526110934,334.6278246195983,355.2445698142693,98.49347753975638
2026-09-21 21:40:25.773207808,0.7924282226562499,-4.41700927734375,9.176366699218748,-0.035153726389045944,0.005326322180158476,0.04048004856920442,334.6038435327123,355.2578686472925,98.5127290700143
2026-09-21 21:40:25.788453120,0.7445473632812499,-4.46489013671875,9.169184570312499,-0.035153726389045944,0.006391586616190171,0.04154531300523612,334.5806922513165,355.27327369948244,98.5321286396921
2026-09-21 21:40:25.788453120,0.73018310546875,-4.452919921875,9.21227734375,-0.03834951969714103,0.0031957933080950856,0.035153726389045944,334.5559516560754,355.2868987160898,98.55028264500737
2026-09-21 21:40:25.788453120,0.7349711914062499,-4.5055888671875,9.16679052734375,-0.039414784133172724,-0.0031957933080950856,0.02769687533682408,334.5309919153902,355.2953290773676,98.56652857165867
2026-09-21 21:40:25.788453120,0.7708818359374999,-4.527135253906249,9.17157861328125,-0.03195793308095086,-0.010652644360316953,0.019174759848570515,334.50865502983703,355.2973727817321,98.57969609291005
2026-09-21 21:40:25.805543424,0.8163686523437499,-4.54149951171875,9.1883369140625,-0.024501082028728992,-0.009587379924285258,0.011717908796348648,334.4910564400348,355.29636896260456,98.58939949904199
2026-09-21 21:40:25.805543424,0.80679248046875,-4.491224609374999,9.126091796874999,-0.02024002428460221,-0.007456851052221867,0.005326322180158476,334.476506907814,355.29480123749863,98.59512987613634
2026-09-21 21:40:25.805543424,0.833126953125,-4.52234716796875,9.106939453125,-0.01597896654047543,-0.0021305288720633907,0.0021305288720633907,334.4648119275974,355.294763978258,98.59770087669712
2026-09-21 21:40:25.827152640,0.8259448242187499,-4.457708007812499,9.1021513671875,-0.010652644360316953,-0.0021305288720633907,-0.0021305288720633907,334.45646706560206,355.29417162484253,98.59740920772741
2026-09-21 21:40:25.839372288,0.8283388671874999,-4.460102050781249,9.1117275390625,-0.005326322180158476,0.0010652644360316954,-0.009587379924285258,334.4512414771272,355.29342253571144,98.59243327445157
2026-09-21 21:40:25.839372288,0.7900341796874999,-4.491224609374999,9.1500322265625,-0.0031957933080950856,0.0,-0.01810949541253882,334.4478845743477,355.2903348080442,98.58357571691101
2026-09-21 21:40:25.855951616,0.8259448242187499,-4.507982910156249,9.130879882812499,-0.0010652644360316954,0.0,-0.024501082028728992,334.44597383993505,355.2857227105825,98.57113276550925
2026-09-21 21:40:25.855951616,0.833126953125,-4.48883056640625,9.17397265625,0.0,0.0021305288720633907,-0.029827404208887468,334.44584019547267,355.27995238568957,98.55498293967891
2026-09-21 21:40:25.877641984,0.8379150390625,-4.472072265625,9.109333496093749,0.0031957933080950856,0.0010652644360316954,-0.03408846195301425,334.448301339685,355.2728716869813,98.53673148011485
2026-09-21 21:40:25.890367744,0.8020043945312499,-4.452919921875,9.09496923828125,0.004261057744126781,0.004261057744126781,-0.03834951969714103,334.45145894154757,355.2655697288131,98.51588396852192
2026-09-21 21:40:25.891567872,0.7732758789062499,-4.476860351562499,9.202701171874999,0.004261057744126781,0.0021305288720633907,-0.039414784133172724,334.4548366050577,355.2575482717883,98.49488806390721
2026-09-21 21:40:25.905117952,0.81158056640625,-4.45052587890625,9.106939453125,0.004261057744126781,0.0010652644360316954,-0.04154531300523612,334.4586435256986,355.2490271190492,98.47248417052703
2026-09-21 21:40:25.905117952,0.7732758789062499,-4.4960126953124995,9.16679052734375,0.004261057744126781,-0.0021305288720633907,-0.04261057744126781,334.46283070676463,355.2382940042834,98.45074216320785
2026-09-21 21:40:25.922487296,0.83073291015625,-4.46489013671875,9.176366699218748,0.004261057744126781,-0.004261057744126781,-0.04048004856920442,334.46697716775367,355.2270027671724,98.43035053321455
2026-09-21 21:40:25.922487296,0.8379150390625,-4.491224609374999,9.20030712890625,0.007456851052221867,-0.004261057744126781,-0.03728425526110934,334.4723275550461,355.2149501123182,98.41145055622393
2026-09-21 21:40:25.942888704,0.8690375976562499,-4.4960126953124995,9.185942871093749,0.008522115488253563,-0.0031957933080950856,-0.03408846195301425,334.47835113787966,355.20377870367844,98.39381089359692
2026-09-21 21:40:25.954193152,0.8834018554687499,-4.493618652343749,9.12848583984375,0.012783173232380343,-0.0031957933080950856,-0.02876213977285577,334.4865226364375,355.19442568613516,98.37854579225713
2026-09-21 21:40:25.970504448,0.8570673828125,-4.46967822265625,9.20509521484375,0.01810949541253882,0.0,-0.023435817592697295,334.49680041868714,355.1876862771106,98.36509735056089
2026-09-21 21:40:25.975403776,0.8091865234375,-4.493618652343749,9.1500322265625,0.017044230976507126,0.0031957933080950856,-0.019174759848570515,334.5074665825605,355.18435115743665,98.35346923898565
2026-09-21 21:40:25.975403776,0.7636997070312499,-4.4864365234375,9.130879882812499,0.021305288720633905,0.004261057744126781,-0.01384843766841204,334.5189566728569,355.18361788891406,98.3442520237913
2026-09-21 21:40:25.992371968,0.8043984375,-4.4816484375,9.17157861328125,0.023435817592697295,0.0,-0.010652644360316953,334.5318209956195,355.1830595610522,98.33762300557466
2026-09-21 21:40:26.004654848,0.77806396484375,-4.457708007812499,9.142850097656249,0.023435817592697295,-0.0021305288720633907,-0.011717908796348648,334.54544699107856,355.18037388552057,98.33179099985483
2026-09-21 21:40:26.004654848,0.80679248046875,-4.440949707031249,9.13806201171875,0.02663161090079238,-0.006391586616190171,-0.012783173232380343,334.5605850542602,355.1753304336631,98.32615537474248
2026-09-21 21:40:26.021459968,0.8403090820312499,-4.455313964843749,9.169184570312499,0.024501082028728992,-0.010652644360316953,-0.01384843766841204,334.5754494546603,355.1674494038847,98.32169082651974
2026-09-21 21:40:26.021459968,0.9049482421874999,-4.457708007812499,9.13327392578125,0.023435817592697295,-0.011717908796348648,-0.01384843766841204,334.5896491801443,355.15812489583993,98.31747633928495
2026-09-21 21:40:26.044161024,0.9025541992187499,-4.46967822265625,9.147638183593749,0.024501082028728992,-0.005326322180158476,-0.012783173232380343,334.6037530264841,355.15067950872344,98.31209371095586
2026-09-21 21:40:26.054897152,0.8953720703124999,-4.491224609374999,9.221853515625,0.02663161090079238,0.0010652644360316954,-0.011717908796348648,334.61875180372374,355.14742274426624,98.30571006741971
2026-09-21 21:40:26.069050112,0.8786137695312499,-4.4792543945312495,9.219459472656249,0.03195793308095086,0.004261057744126781,-0.010652644360316953,334.63555723924367,355.14720501824166,98.2989790653989
2026-09-21 21:40:26.087536384,0.833126953125,-4.48883056640625,9.2074892578125,0.03621899082507764,0.009587379924285258,-0.011717908796348648,334.6560752821757,355.14924927952774,98.29090148618431
2026-09-21 21:40:26.087536384,0.775669921875,-4.507982910156249,9.248187988281249,0.035153726389045944,0.009587379924285258,-0.017044230976507126,334.67587841765925,355.15138731284446,98.27969484973354
2026-09-21 21:40:26.118826240,0.7230009765625,-4.491224609374999,9.20030712890625,0.0458063707493629,0.0,-0.023435817592697295,334.7003607651647,355.1488740447597,98.26687142716987
2026-09-21 21:40:26.150066432,0.83073291015625,-4.4864365234375,9.15721435546875,0.05219795736555307,-0.007456851052221867,-0.035153726389045944,334.73069333756246,355.13869524485403,98.25098510359774
2026-09-21 21:40:26.150066432,0.8235507812499999,-4.440949707031249,9.197913085937499,0.05645901510967985,-0.010652644360316953,-0.04261057744126781,334.7631918404385,355.12356367769576,98.2319769692417
2026-09-21 21:40:26.150066432,0.8834018554687499,-4.414615234375,9.269734374999999,0.06498113059793341,-0.012783173232380343,-0.044741106313331204,334.8014331686408,355.10666782953626,98.21208110884994
2026-09-21 21:40:26.150066432,0.8929780273437499,-4.43616162109375,9.231429687499999,0.0660463950339651,-0.008522115488253563,-0.0458063707493629,334.8417113985203,355.09042069119744,98.19065788410425
2026-09-21 21:40:26.150066432,0.8474912109374999,-4.43137353515625,9.185942871093749,0.07030745277809189,-0.006391586616190171,-0.049002164057457984,334.8826894794499,355.07576257154983,98.16723671924376
2026-09-21 21:40:26.150066432,0.85946142578125,-4.4098271484375,9.31043310546875,0.07669903939428206,-0.012783173232380343,-0.054328486237616457,334.9286708462962,355.05736258828085,98.14233016216257
2026-09-21 21:40:26.165842944,0.9073422851562499,-4.433767578125,9.183548828125,0.07243798165015528,-0.017044230976507126,-0.06178533728983833,334.97295026204677,355.03451715667785,98.11424366465334
2026-09-21 21:40:26.165842944,0.9312827148437499,-4.4002509765625,9.181154785156249,0.07989483270237714,-0.01597896654047543,-0.06711165946999681,335.01979561036376,355.0094899997416,98.08368322828592
2026-09-21 21:40:26.181529088,0.9887397460937499,-4.3140654296875,9.24339990234375,0.08415589044650393,-0.008522115488253563,-0.0692421883420602,335.07068403952576,354.98650353131956,98.05027997584207
2026-09-21 21:40:26.181529088,0.9767695312499999,-4.3284296875,9.176366699218748,0.08309062601047223,0.0,-0.06711165946999681,335.12169731113295,354.96739497722695,98.01539768755295
2026-09-21 21:40:26.197126912,0.995921875,-4.366734375,9.159608398437499,0.08628641931856731,0.006391586616190171,-0.06285060172587002,335.1731469547243,354.95381700419637,97.98042809945298
2026-09-21 21:40:26.213334528,0.9767695312499999,-4.34039990234375,9.17157861328125,0.08948221262666241,0.01384843766841204,-0.059654808417774936,335.2263735733195,354.9451941196647,97.94549778254981
2026-09-21 21:40:26.213334528,0.96958740234375,-4.31167138671875,9.13806201171875,0.09587379924285258,0.019174759848570515,-0.05752427954571154,335.28301395920414,354.9398332672591,97.91023874934791
2026-09-21 21:40:26.228440064,0.9217065429687499,-4.333217773437499,9.193124999999998,0.10013485698697935,0.021305288720633905,-0.05752427954571154,335.3421564971958,354.9369588547145,97.8749094886815
2026-09-21 21:40:26.244128512,0.8929780273437499,-4.335611816406249,9.16679052734375,0.10439591473110614,0.021305288720633905,-0.054328486237616457,335.40395739236493,354.9348045450035,97.84054152866482
2026-09-21 21:40:26.245358592,0.8570673828125,-4.3427939453125,9.219459472656249,0.111852765783328,0.014913702104443734,-0.05539375067364816,335.46904807550214,354.9307692185709,97.80749131438778
2026-09-21 21:40:26.259982592,0.8929780273437499,-4.3427939453125,9.22424755859375,0.11717908796348649,0.014913702104443734,-0.054328486237616457,335.53741468846124,354.92628643833734,97.77469605595621
2026-09-21 21:40:26.279630080,0.8929780273437499,-4.3380058593749995,9.2170654296875,0.12570120345174005,0.012783173232380343,-0.05219795736555307,335.61014212593625,354.9207312031827,97.743649905211
2026-09-21 21:40:26.279630080,0.9624052734374999,-4.25900244140625,9.214671386718749,0.12996226119586682,0.01597896654047543,-0.05006742849348968,335.68559905602757,354.9166840357398,97.71333039096268
2026-09-21 21:40:26.293222656,0.94085888671875,-4.3140654296875,9.279310546875,0.12783173232380343,0.019174759848570515,-0.0458063707493629,335.7612535851575,354.91480201522984,97.6844546655983
2026-09-21 21:40:26.293222656,0.9600112304687499,-4.316459472656249,9.315221191406248,0.12570120345174005,0.02663161090079238,-0.04048004856920442,335.83493442155014,354.91788496672916,97.65609038282025
2026-09-21 21:40:26.309993728,0.9145244140625,-4.3212475585937495,9.31043310546875,0.12037488127158157,0.03408846195301425,-0.03302319751698255,335.90593792582587,354.92672706589997,97.62918931239737
2026-09-21 21:40:26.325199872,0.9001601562499999,-4.2853369140624995,9.269734374999999,0.11824435239951818,0.03834951969714103,-0.02876213977285577,335.97483647484717,354.93935928246015,97.60438520357904
2026-09-21 21:40:26.339825408,0.8522792968749999,-4.2326679687499995,9.26734033203125,0.11078750134729631,0.04261057744126781,-0.025566346464760685,336.0399528441083,354.9555621935808,97.58046476909067
2026-09-21 21:40:26.357383168,0.833126953125,-4.1512705078125,9.298462890624998,0.10546117916713783,0.043675841877299504,-0.022370553156665602,336.10223924371326,354.97403982564674,97.55741173527448
2026-09-21 21:40:26.357383168,0.8020043945312499,-4.17281689453125,9.34394970703125,0.09480853480682087,0.04261057744126781,-0.017044230976507126,336.1602501122788,354.9933250376366,97.53735025896846
2026-09-21 21:40:26.357383168,0.7804580078125,-4.1895751953125,9.329585449218749,0.07882956826634545,0.04154531300523612,-0.007456851052221867,336.2083442419861,355.01399351409395,97.52191267328622
2026-09-21 21:40:26.371939328,0.7636997070312499,-4.1967573242187495,9.32719140625,0.07456851052221868,0.03302319751698255,-0.0031957933080950856,336.2519362440588,355.0332759725142,97.51122321426418
2026-09-21 21:40:26.405115904,0.69666650390625,-4.191969238281249,9.394224609375,0.06711165946999681,0.023435817592697295,0.0,336.2916323294838,355.0491160437902,97.5046214212407
2026-09-21 21:40:26.405115904,0.756517578125,-4.27097265625,9.341555664062499,0.06285060172587002,0.010652644360316953,0.0021305288720633907,336.32677280988366,355.0588123399719,97.5025256698417
2026-09-21 21:40:26.405115904,0.80679248046875,-4.213515624999999,9.3224033203125,0.0681769239060285,0.0021305288720633907,0.004261057744126781,336.3632774513808,355.0630748236296,97.50393299301315
2026-09-21 21:40:26.420920576,0.7948222656249999,-4.1895751953125,9.2936748046875,0.07456851052221868,0.0,0.012783173232380343,336.40428332850354,355.06662803242915,97.50982297033109
2026-09-21 21:40:26.426806272,0.8020043945312499,-4.105783691406249,9.37746630859375,0.08309062601047223,0.0021305288720633907,0.022370553156665602,336.44889032051697,355.07338465623843,97.5196928772851
2026-09-21 21:40:26.437432832,0.7876401367187499,-4.08184326171875,9.40140673828125,0.08522115488253562,0.0010652644360316954,0.03302319751698255,336.4967240354353,355.08183706666574,97.53534433253834
2026-09-21 21:40:26.486326784,0.78285205078125,-4.0555087890624995,9.3128271484375,0.08415589044650393,0.0021305288720633907,0.04154531300523612,336.54354228644945,355.0933415845314,97.55581431756472
2026-09-21 21:40:26.486326784,0.7876401367187499,-3.9358066406249996,9.3894365234375,0.08309062601047223,-0.0021305288720633907,0.04687163518539459,336.590675727329,355.10415666675027,97.58048595262127
2026-09-21 21:40:26.515689984,0.8091865234375,-3.9405947265625,9.41577099609375,0.07669903939428206,-0.007456851052221867,0.05113269292952137,336.6357129543906,355.1136410765833,97.60870807816835
2026-09-21 21:40:26.515689984,0.81158056640625,-3.9094721679687496,9.38225439453125,0.0692421883420602,-0.010652644360316953,0.05326322180158476,336.6767097381179,355.1213256943798,97.63918206373282
2026-09-21 21:40:26.515689984,0.8570673828125,-3.8496210937499997,9.3846484375,0.06178533728983833,-0.01384843766841204,0.054328486237616457,336.7129894155062,355.1272275499429,97.67135254392907
2026-09-21 21:40:26.515689984,0.8546733398437499,-3.8065283203124998,9.30085693359375,0.05006742849348968,-0.014913702104443734,0.054328486237616457,336.7440266901974,355.13199555804124,97.7034402157884
2026-09-21 21:40:26.531111168,0.833126953125,-3.80892236328125,9.353525878906249,0.03302319751698255,-0.017044230976507126,0.054328486237616457,336.7653114407083,355.1351476909638,97.73652844771242
2026-09-21 21:40:26.536392448,0.9025541992187499,-3.8400449218749997,9.38225439453125,0.01384843766841204,-0.01597896654047543,0.05006742849348968,336.7763785515667,355.13803828659456,97.76768790736293
2026-09-21 21:40:26.537433856,0.88818994140625,-3.90468408203125,9.36549609375,0.004261057744126781,-0.014913702104443734,0.04793689962142629,336.78063990237234,355.1409586403429,97.79681930652474
2026-09-21 21:40:26.544374784,0.8738256835937499,-3.9118662109374998,9.355919921875,-0.0021305288720633907,-0.012783173232380343,0.04048004856920442,336.7792754478488,355.14346764229214,97.82283367962991
2026-09-21 21:40:26.544374784,0.9049482421874999,-3.9549589843749997,9.33437353515625,-0.0031957933080950856,-0.011717908796348648,0.03621899082507764,336.77634042269943,355.1459275584286,97.84583136197475
2026-09-21 21:40:26.553732608,0.8977661132812499,-3.9453828124999997,9.434923339843749,-0.004261057744126781,-0.008522115488253563,0.03195793308095086,336.7729503876009,355.1489364519117,97.86560719736077
2026-09-21 21:40:26.563346688,0.83073291015625,-3.9908696289062497,9.3846484375,-0.0021305288720633907,-0.006391586616190171,0.023435817592697295,336.7705397817408,355.15181722862286,97.88083998089527
2026-09-21 21:40:26.579651328,0.8570673828125,-3.9956577148437495,9.422953125,0.0,-0.0031957933080950856,0.017044230976507126,336.7701425842501,355.15430201255003,97.89175965312114
2026-09-21 21:40:26.579651328,0.8570673828125,-4.0076279296875,9.3511318359375,0.0021305288720633907,-0.0021305288720633907,0.009587379924285258,336.7715862929318,355.155428691621,97.89880608202415
2026-09-21 21:40:26.594884864,0.83552099609375,-4.0267802734375,9.36789013671875,0.007456851052221867,-0.0021305288720633907,0.004261057744126781,336.77572212708094,355.1559373931631,97.90226399687181
2026-09-21 21:40:26.594884864,0.8139746093749999,-3.9310185546875,9.341555664062499,0.009587379924285258,0.0,-0.0010652644360316954,336.78192902461035,355.1564341767288,97.902401844471
2026-09-21 21:40:26.613614336,0.8570673828125,-3.9597470703124995,9.331979492187498,0.006391586616190171,-0.0010652644360316954,-0.007456851052221867,336.78766467679617,355.1549019222704,97.89880355464697
2026-09-21 21:40:26.626642688,0.8235507812499999,-3.9262304687499996,9.32719140625,0.0021305288720633907,-0.0021305288720633907,-0.01384843766841204,336.79139630212865,355.1506971205949,97.89262495312293
2026-09-21 21:40:26.630270208,0.8498852539062499,-3.9765053710937495,9.281704589843748,0.0,-0.005326322180158476,-0.017044230976507126,336.79358549909216,355.1447127581484,97.88531812929291
2026-09-21 21:40:26.642299136,0.890583984375,-4.017204101562499,9.29606884765625,-0.0031957933080950856,-0.009587379924285258,-0.02024002428460221,336.7931040314024,355.13677075929536,97.87633967953059
2026-09-21 21:40:26.642299136,0.9049482421874999,-4.01002197265625,9.4277412109375,-0.0031957933080950856,-0.007456851052221867,-0.023435817592697295,336.79193116388024,355.12772307520265,97.86541187214544
2026-09-21 21:40:26.659826432,0.890583984375,-4.031568359375,9.3894365234375,-0.004261057744126781,-0.007456851052221867,-0.023435817592697295,336.7905982872019,355.11847030814977,97.85447190422084
2026-09-21 21:40:26.675550720,0.9552231445312499,-4.0459326171875,9.308039062499999,-0.0010652644360316954,-0.0010652644360316954,-0.02024002428460221,336.7902507352987,355.1121442254615,97.84331210723629
2026-09-21 21:40:26.675550720,0.8929780273437499,-4.0555087890624995,9.36789013671875,0.0010652644360316954,0.005326322180158476,-0.017044230976507126,336.79148075321115,355.10981033342625,97.83229271781374
2026-09-21 21:40:26.690668288,0.9025541992187499,-4.072267089843749,9.379860351562499,0.0031957933080950856,0.010652644360316953,-0.014913702104443734,336.7940829902475,355.11154332197174,97.82108634921278
2026-09-21 21:40:26.690668288,0.85946142578125,-4.033962402343749,9.303250976562499,0.006391586616190171,0.01597896654047543,-0.010652644360316953,336.797745198484,355.11666667939886,97.81117111822735
2026-09-21 21:40:26.706371072,0.8139746093749999,-3.9908696289062497,9.317615234375,0.008522115488253563,0.012783173232380343,-0.010652644360316953,336.8031017112393,355.1216641104181,97.8023457042187
2026-09-21 21:40:26.723664896,0.8020043945312499,-4.031568359375,9.38225439453125,0.007456851052221867,0.005326322180158476,-0.011717908796348648,336.80964870676473,355.1238643928537,97.79392430183536
2026-09-21 21:40:26.723664896,0.8379150390625,-4.0555087890624995,9.324797363281249,0.0,0.0021305288720633907,-0.011717908796348648,336.81062387632835,355.12453538398023,97.78655956858303
2026-09-21 21:40:26.740432128,0.83552099609375,-3.9860815429687495,9.403800781249998,0.0010652644360316954,-0.0031957933080950856,-0.009587379924285258,336.81179849242886,355.12135611436764,97.78134532531874
2026-09-21 21:40:26.753988096,0.8714316406249999,-4.04353857421875,9.4181650390625,-0.008522115488253563,-0.0031957933080950856,-0.0021305288720633907,336.80916252994075,355.11903812194447,97.77965938075465
2026-09-21 21:40:26.769627392,0.8857958984375,-4.04114453125,9.34394970703125,-0.019174759848570515,-0.0010652644360316954,0.0031957933080950856,336.79883803670026,355.11910746171066,97.78121082558708
2026-09-21 21:40:26.773809152,0.8139746093749999,-4.036356445312499,9.331979492187498,-0.01810949541253882,-0.004261057744126781,0.007456851052221867,336.78712744157366,355.1201275037934,97.78543742475809
2026-09-21 21:40:26.785592320,0.83552099609375,-4.0555087890624995,9.408588867187499,-0.024501082028728992,-0.009587379924285258,0.011717908796348648,336.7735961919925,355.1197249090309,97.79253833153967
2026-09-21 21:40:26.789398528,0.85946142578125,-4.04114453125,9.36549609375,-0.02769687533682408,-0.01384843766841204,0.01384843766841204,336.75603298275985,355.11676792766116,97.80198796162118
2026-09-21 21:40:26.801494784,0.8929780273437499,-4.033962402343749,9.425347167968749,-0.025566346464760685,-0.01597896654047543,0.01810949541253882,336.7400626212788,355.1134288333902,97.81482705129494
2026-09-21 21:40:26.817134336,0.8977661132812499,-4.00523388671875,9.379860351562499,-0.030892668644919165,-0.012783173232380343,0.022370553156665602,336.72167980579167,355.1114193374593,97.829259754391
2026-09-21 21:40:26.817134336,0.91213037109375,-3.9645351562499997,9.36789013671875,-0.03195793308095086,-0.009587379924285258,0.02876213977285577,336.7020360323008,355.11277623602524,97.84580708215752
2026-09-21 21:40:26.848886016,0.9025541992187499,-3.9525649414062496,9.34394970703125,-0.03834951969714103,-0.006391586616190171,0.03195793308095086,336.67959046904645,355.116290148406,97.86371143229889
2026-09-21 21:40:26.880089088,0.8834018554687499,-3.9358066406249996,9.329585449218749,-0.04261057744126781,-0.0031957933080950856,0.035153726389045944,336.65436258193614,355.12255913832246,97.88270277253574
2026-09-21 21:40:26.880089088,0.91691845703125,-3.9956577148437495,9.28888671875,-0.05113269292952137,-0.0010652644360316954,0.03728425526110934,336.62482824550995,355.1305791123608,97.90232826158977
2026-09-21 21:40:26.880089088,0.91213037109375,-4.019598144531249,9.29606884765625,-0.05645901510967985,-0.0010652644360316954,0.03408846195301425,336.59244568558006,355.1377961588536,97.92098815332339
2026-09-21 21:40:26.895595520,0.8498852539062499,-4.07944921875,9.26734033203125,-0.059654808417774936,-0.0010652644360316954,0.03195793308095086,336.5569807562775,355.14524803755717,97.93828847677034
2026-09-21 21:40:26.895595520,0.8522792968749999,-4.105783691406249,9.286492675781249,-0.06285060172587002,-0.0010652644360316954,0.02663161090079238,336.51911380236413,355.1514235982157,97.9533637162114
2026-09-21 21:40:26.897947392,0.8857958984375,-4.1129658203125,9.298462890624998,-0.06178533728983833,0.0,0.021305288720633905,336.4815320709364,355.15648613711517,97.9655009215431
2026-09-21 21:40:26.897947392,0.8953720703124999,-4.10099560546875,9.317615234375,-0.05645901510967985,-0.0010652644360316954,0.017044230976507126,336.4465019517459,355.16072417999095,97.97555279536961
2026-09-21 21:40:26.911458560,0.8690375976562499,-4.14887646484375,9.31043310546875,-0.05113269292952137,0.0021305288720633907,0.01384843766841204,336.414598279266,355.16500339249654,97.98257488008585
2026-09-21 21:40:26.928655616,0.9001601562499999,-4.1967573242187495,9.32719140625,-0.0458063707493629,0.006391586616190171,0.009587379924285258,336.3851860628362,355.1709736982811,97.98697006518398
2026-09-21 21:40:26.937826304,0.8810078124999999,-4.227879882812499,9.33437353515625,-0.03834951969714103,0.010652644360316953,0.008522115488253563,336.35931596576734,355.17858512979706,97.98956138074081
2026-09-21 21:40:26.953603584,0.8427031249999999,-4.2494262695312495,9.28888671875,-0.03195793308095086,0.01384843766841204,0.004261057744126781,336.3376873535416,355.18770742159774,97.98950474841956
2026-09-21 21:40:26.954292736,0.8522792968749999,-4.227879882812499,9.32719140625,-0.023435817592697295,0.014913702104443734,0.0010652644360316954,336.32060482959713,355.19760065483484,97.98700914067774
2026-09-21 21:40:26.954292736,0.8570673828125,-4.263790527343749,9.308039062499999,-0.01384843766841204,0.01810949541253882,0.0,336.3094580662742,355.20791753391245,97.98287133417524
2026-09-21 21:40:26.971301632,0.8450971679687499,-4.2087275390625,9.291280761718749,-0.008522115488253563,0.01810949541253882,-0.0031957933080950856,336.30174700998555,355.21763100296477,97.97733257838813
2026-09-21 21:40:26.986798080,0.81158056640625,-4.223091796875,9.303250976562499,-0.004261057744126781,0.019174759848570515,-0.0031957933080950856,336.297151215039,355.228358564558,97.97111661620912
2026-09-21 21:40:26.986798080,0.8211567382812499,-4.244638183593749,9.264946289062499,0.0031957933080950856,0.019174759848570515,-0.006391586616190171,336.29723562690214,355.2387464019851,97.96309836805548
2026-09-21 21:40:27.003098368,0.7134248046874999,-4.213515624999999,9.298462890624998,0.009587379924285258,0.02024002428460221,-0.008522115488253563,336.30166612523004,355.248414038078,97.95382942745744
2026-09-21 21:40:27.017154048,0.7062426757812499,-4.2326679687499995,9.28888671875,0.011717908796348648,0.011717908796348648,-0.01384843766841204,336.30819137333475,355.25430856590424,97.94390027925589
2026-09-21 21:40:27.051629568,0.8379150390625,-4.261396484375,9.269734374999999,0.01810949541253882,0.0021305288720633907,-0.02024002428460221,336.31726326651614,355.25383677951373,97.93204394694332
2026-09-21 21:40:27.051629568,0.83073291015625,-4.2518203125,9.3224033203125,0.025566346464760685,0.0,-0.023435817592697295,336.3307198210069,355.24914525688837,97.92003193060415
2026-09-21 21:40:27.051629568,0.9049482421874999,-4.230273925781249,9.22903564453125,0.03195793308095086,0.0010652644360316954,-0.023435817592697295,336.34833331954763,355.24459811618334,97.9065225991524
2026-09-21 21:40:27.051629568,0.85946142578125,-4.30927734375,9.308039062499999,0.039414784133172724,0.009587379924285258,-0.01810949541253882,336.36858711440686,355.24369779936535,97.89406449678202
2026-09-21 21:40:27.065144576,0.8810078124999999,-4.282942871093749,9.279310546875,0.05006742849348968,0.014913702104443734,-0.014913702104443734,336.39439863734816,355.2470851803114,97.88266250766299
2026-09-21 21:40:27.065144576,0.86185546875,-4.33082373046875,9.303250976562499,0.059654808417774936,0.019174759848570515,-0.01384843766841204,336.42645619565917,355.2535562867686,97.87044347254236
2026-09-21 21:40:27.080918272,0.8427031249999999,-4.333217773437499,9.32719140625,0.0692421883420602,0.021305288720633905,-0.011717908796348648,336.46329953906667,355.2619931128481,97.85921970571738
2026-09-21 21:40:27.080918272,0.8450971679687499,-4.388280761718749,9.394224609375,0.08096009713840883,0.022370553156665602,-0.014913702104443734,336.50682855876624,355.2710988463357,97.84649906293967
2026-09-21 21:40:27.096412672,0.7924282226562499,-4.3906748046874995,9.34394970703125,0.09587379924285258,0.02024002428460221,-0.019174759848570515,336.5579510739525,355.278387145239,97.83219857652563
2026-09-21 21:40:27.114914560,0.8403090820312499,-4.3810986328125,9.36549609375,0.111852765783328,0.022370553156665602,-0.023435817592697295,336.6185445335378,355.2851189467877,97.81499242524019
2026-09-21 21:40:27.114914560,0.8283388671874999,-4.266184570312499,9.41098291015625,0.12676646788777174,0.022370553156665602,-0.022370553156665602,336.6877343024669,355.2926667120201,97.79745207288796
2026-09-21 21:40:27.127928064,0.8091865234375,-4.17281689453125,9.3224033203125,0.13422331893999362,0.022370553156665602,-0.021305288720633905,336.7637433579305,355.3003368550772,97.78009103892958
2026-09-21 21:40:27.143594496,0.8020043945312499,-4.160846679687499,9.274522460937499,0.1310275256318985,0.02024002428460221,-0.02024002428460221,336.8396374733663,355.3074354984634,97.76392187263879
2026-09-21 21:40:27.143594496,0.77806396484375,-4.1967573242187495,9.248187988281249,0.12676646788777174,0.019174759848570515,-0.01597896654047543,336.9119828132073,355.31420466298266,97.75063723912989
2026-09-21 21:40:27.159254784,0.8091865234375,-4.2183037109375,9.3511318359375,0.12676646788777174,0.017044230976507126,-0.011717908796348648,336.98283017372745,355.321587352459,97.74002902864993
2026-09-21 21:40:27.174954496,0.8570673828125,-4.22069775390625,9.36789013671875,0.1310275256318985,0.017044230976507126,-0.008522115488253563,337.05643881109,355.3295464372835,97.73096381946581
2026-09-21 21:40:27.190618880,0.8810078124999999,-4.22069775390625,9.286492675781249,0.1331580545039619,0.024501082028728992,-0.005326322180158476,337.1302853707836,355.33916762897525,97.72223101436661
2026-09-21 21:40:27.222105088,0.83552099609375,-4.18718115234375,9.31043310546875,0.14913702104443735,0.03195793308095086,-0.0010652644360316954,337.2108737725575,355.3543828361256,97.71407444546016
2026-09-21 21:40:27.243114752,0.8043984375,-4.18718115234375,9.341555664062499,0.1555286076606275,0.03728425526110934,0.0,337.29741801398063,355.37352623356395,97.7061541105754
2026-09-21 21:40:27.243114752,0.8091865234375,-4.1273300781249995,9.329585449218749,0.16192019427681767,0.039414784133172724,0.0010652644360316954,337.3876620957809,355.39506721476664,97.69797579445786
2026-09-21 21:40:27.253710080,0.78524609375,-4.0650849609375,9.281704589843748,0.16724651645697616,0.035153726389045944,0.0031957933080950856,337.4818999141783,355.4160183286638,97.6915115166077
2026-09-21 21:40:27.253710080,0.75891162109375,-4.019598144531249,9.320009277343749,0.16192019427681767,0.035153726389045944,0.0031957933080950856,337.57419732625056,355.4363247543332,97.68597559657977
2026-09-21 21:40:27.253710080,0.73018310546875,-3.974111328125,9.281704589843748,0.1587244009687226,0.029827404208887468,0.008522115488253563,337.6643202594326,355.4554365876869,97.68336926320039
2026-09-21 21:40:27.253710080,0.75891162109375,-4.0219921874999995,9.34394970703125,0.15446334322459582,0.024501082028728992,0.010652644360316953,337.7521489356835,355.4724044000708,97.68364639776726
2026-09-21 21:40:27.253710080,0.7660937499999999,-3.9908696289062497,9.425347167968749,0.15446334322459582,0.022370553156665602,0.014913702104443734,337.838505086981,355.48842354155744,97.68623277396603
2026-09-21 21:40:27.269363712,0.7373652343749999,-3.9549589843749997,9.403800781249998,0.1565938720966592,0.019174759848570515,0.01810949541253882,337.92653014879335,355.5037709410062,97.69109510403209
2026-09-21 21:40:27.285122816,0.7445473632812499,-3.91426025390625,9.3894365234375,0.15978966540475428,0.014913702104443734,0.022370553156665602,338.0153305854525,355.51836758818075,97.69935182084406
2026-09-21 21:40:27.285122816,0.7708818359374999,-3.9310185546875,9.45407568359375,0.15978966540475428,0.011717908796348648,0.02663161090079238,338.1050333449407,355.53167820491376,97.71079839421618
2026-09-21 21:40:27.301322496,0.77806396484375,-3.8280747070312495,9.463651855468749,0.16192019427681767,0.010652644360316953,0.03408846195301425,338.1961697088003,355.545121904379,97.72569412471411
2026-09-21 21:40:27.301322496,0.7996103515624999,-3.7706176757812497,9.480410156249999,0.1629854587128494,0.008522115488253563,0.03834951969714103,338.28854222046033,355.558645235929,97.74374939644699
2026-09-21 21:40:27.317110016,0.8427031249999999,-3.7251308593749997,9.480410156249999,0.1555286076606275,0.009587379924285258,0.04154531300523612,338.37785986456055,355.57263537373746,97.76338638568186
2026-09-21 21:40:27.332649472,0.8666435546874999,-3.7131606445312495,9.47322802734375,0.14807175660840563,0.010652644360316953,0.04687163518539459,338.4626464586182,355.5881845948467,97.78592986545387
2026-09-21 21:40:27.349991680,0.8091865234375,-3.7107666015625,9.430135253906249,0.1374191122480887,0.014913702104443734,0.05113269292952137,338.541479094574,355.60566006501347,97.80956136345664
2026-09-21 21:40:27.349991680,0.81158056640625,-3.67485595703125,9.432529296875,0.1310275256318985,0.01810949541253882,0.05219795736555307,338.6151794293744,355.6262517242978,97.83348004956714
2026-09-21 21:40:27.364506368,0.81158056640625,-3.64133935546875,9.540261230468749,0.12144014570761326,0.01810949541253882,0.05113269292952137,338.6847558402938,355.6466107105216,97.857501212518
2026-09-21 21:40:27.373445120,0.7900341796874999,-3.67485595703125,9.451681640624999,0.10333065029507445,0.019174759848570515,0.05219795736555307,338.7458225975476,355.6682806910923,97.88164547140443
2026-09-21 21:40:27.381493760,0.756517578125,-3.62218701171875,9.51153271484375,0.0916127414987258,0.01597896654047543,0.049002164057457984,338.79825017384525,355.6879185864958,97.90469065362123
2026-09-21 21:40:27.396379648,0.7613056640624999,-3.6437333984374995,9.501956542968749,0.07776430383031376,0.01384843766841204,0.04687163518539459,338.8446110328976,355.70566755175935,97.92694544774065
2026-09-21 21:40:27.396379648,0.7469414062499999,-3.6628857421874996,9.44928759765625,0.059654808417774936,0.01597896654047543,0.0458063707493629,338.8798115826148,355.7234102922827,97.94857141550267
2026-09-21 21:40:27.413783296,0.69666650390625,-3.5934584960937497,9.4947744140625,0.05219795736555307,0.007456851052221867,0.0458063707493629,338.9095767616055,355.7388407227974,97.9712117697382
2026-09-21 21:40:27.413783296,0.6846962890624999,-3.5767001953124997,9.475622070312498,0.03195793308095086,0.0,0.0458063707493629,338.9315218676795,355.750423665594,97.99516316747734
2026-09-21 21:40:27.427898368,0.6296333007812499,-3.4450278320312497,9.226641601562498,-0.0031957933080950856,-0.009587379924285258,0.05006742849348968,338.9339686184702,355.7582410068074,98.02287561144428
2026-09-21 21:40:27.443660544,0.7469414062499999,-3.32532568359375,9.152426269531249,-0.04793689962142629,-0.030892668644919165,0.05326322180158476,338.91208360882877,355.7575046057167,98.0558964379391
2026-09-21 21:40:27.443660544,0.8283388671874999,-3.3133554687499998,9.09496923828125,-0.11398329465539139,-0.059654808417774936,0.05752427954571154,338.8569687532223,355.74053863719735,98.09649428565486
2026-09-21 21:40:27.471796480,0.9791635742187499,-3.5240312499999997,8.9968134765625,-0.20879182946221228,-0.0692421883420602,0.07350324608618697,338.7490716009767,355.7176455532003,98.14757500454279
2026-09-21 21:40:27.477839872,0.9887397460937499,-3.8998959960937496,9.05187646484375,-0.28016454667633583,-0.07776430383031376,0.09587379924285258,338.59060610498005,355.69478941742466,98.21137996576357
2026-09-21 21:40:27.487274752,1.0126801757812498,-4.290125,9.114121582031249,-0.3312972396058572,-0.08522115488253562,0.12037488127158157,338.3980080035106,355.6712767235073,98.29025203883623
2026-09-21 21:40:27.492263680,0.8810078124999999,-4.66120166015625,9.0782109375,-0.38136466809934694,-0.09800432811491597,0.14381069886427886,338.1705945638298,355.6491926828455,98.3846633216943
2026-09-21 21:40:27.505807616,0.8834018554687499,-5.0514306640625,9.126091796874999,-0.40906154343617096,-0.1374191122480887,0.16511598758491278,337.9199303343953,355.6154349687896,98.49808327426602
2026-09-21 21:40:27.518833408,0.9241005859374999,-5.410537109374999,9.11890966796875,-0.447411063133312,-0.16937704532903955,0.1821602185614199,337.6448459906086,355.56734232709425,98.629226712202
2026-09-21 21:40:27.520105216,1.0198623046875,-5.762461425781249,9.0351181640625,-0.4751079384701361,-0.2066613005901489,0.20985709389824397,337.3453613634147,355.5068938403384,98.78177779906542
2026-09-21 21:40:27.535829760,1.1443525390625,-6.145508300781249,9.09496923828125,-0.471912145162041,-0.23542344036300467,0.23648870479903636,337.0378804494445,355.4348720802909,98.95696750015779
2026-09-21 21:40:27.568935680,1.28320703125,-6.547707519531249,9.241005859374999,-0.4569984430575973,-0.23968449810713144,0.26844663787998724,336.73419476521366,355.3640389358479,99.1504419737905
2026-09-21 21:40:27.568935680,1.4699423828124998,-6.98342333984375,9.202701171874999,-0.43249736102886827,-0.21518341607840244,0.31425300862935013,336.4379507768984,355.3111605961681,99.36337850917631
2026-09-21 21:40:27.598851584,1.4962768554687498,-7.21325146484375,8.915416015624999,-0.4005394279479174,-0.1757686319452297,0.3643204371228398,336.15356469868215,355.2889312999942,99.59437102169835
2026-09-21 21:40:27.600818944,1.465154296875,-7.134248046874999,8.70234619140625,-0.3440804128382376,-0.1331580545039619,0.4111920723082344,335.89203990243124,355.30075007622213,99.84031482110727
2026-09-21 21:40:27.600818944,1.25687255859375,-6.746413085937499,8.5419453125,-0.2439455558512582,-0.09587379924285258,0.4644552941098191,335.68375853218,355.3474977135078,100.10494353167807
2026-09-21 21:40:27.600818944,1.0438027343749998,-6.387306640625,8.738256835937499,-0.16085492984078598,-0.08415589044650393,0.4878911117025164,335.5322615851143,355.41401667064827,100.38118115220102
2026-09-21 21:40:27.600818944,0.890583984375,-6.3274555664062495,8.836412597656249,-0.15233281435253243,-0.08202536157444054,0.4985437560628334,335.39892978254255,355.4884626640152,100.66281687187279
2026-09-21 21:40:27.615145984,0.85946142578125,-6.38491259765625,8.7861376953125,-0.14594122773634224,-0.0905474770626941,0.4996090204988651,335.26844475777887,355.5617898497872,100.94707203799564
2026-09-21 21:40:27.615145984,0.9312827148437499,-6.413641113281249,8.731074707031249,-0.12357067457967666,-0.09480853480682087,0.4921521694466432,335.1484938581684,355.63148129657526,101.229487443572
2026-09-21 21:40:27.629785600,0.9576171874999999,-6.35139599609375,8.94414453125,-0.07243798165015528,-0.09800432811491597,0.4804342606502946,335.05488165416483,355.69634455004467,101.50676668137606
2026-09-21 21:40:27.646566400,0.9384648437499999,-6.4687041015624995,9.025541992187499,-0.02769687533682408,-0.09800432811491597,0.46871635185394595,334.9908442824074,355.7587764763127,101.77800150474594
2026-09-21 21:40:27.661591296,0.9025541992187499,-6.2388759765624995,8.881899414062499,0.021305288720633905,-0.07989483270237714,0.4516721208774388,334.95375616240585,355.8238505747951,102.03748619179619
2026-09-21 21:40:27.692873472,0.8738256835937499,-5.57572607421875,8.98963134765625,0.10120012142301105,-0.08415589044650393,0.4271710388487098,334.9650148159748,355.8847764662807,102.2846191948156
2026-09-21 21:40:27.692873472,0.8283388671874999,-5.039460449218749,9.104545410156248,0.12463593901570835,-0.0916127414987258,0.4101268078722027,335.00875285593764,355.93743737122725,102.52401560751099
2026-09-21 21:40:27.692873472,0.8450971679687499,-4.740205078124999,9.13327392578125,0.039414784133172724,-0.08628641931856731,0.3866909902795054,335.0239782049199,355.9851919340784,102.75022669549737
2026-09-21 21:40:27.692873472,0.890583984375,-4.773721679687499,8.98484326171875,-0.059654808417774936,-0.09906959255094766,0.37071202373902995,334.9834316584111,356.02680364505625,102.96838173875916
2026-09-21 21:40:27.692873472,1.0342265625,-5.008337890625,8.98963134765625,-0.12250541014364495,-0.09906959255094766,0.3376888262220474,334.89989070848657,356.0559735869191,103.1737173684416
2026-09-21 21:40:27.708610304,1.00789208984375,-5.353080078124999,9.12848583984375,-0.13954964112015208,-0.08841694819063071,0.32703618186173045,334.7981373195875,356.08675532862225,103.36672831237402
2026-09-21 21:40:27.725182720,0.9887397460937499,-5.597272460937499,8.95132666015625,-0.10546117916713783,-0.0681769239060285,0.3078614220131599,334.7078715392756,356.1211068821461,103.54957250965285
2026-09-21 21:40:27.725182720,0.8427031249999999,-5.460812011718749,9.05187646484375,-0.02663161090079238,-0.030892668644919165,0.2982740420888747,334.6549388681256,356.1719726819188,103.71514602481226
2026-09-21 21:40:27.758990848,0.5123251953125,-4.93891064453125,9.106939453125,0.08628641931856731,-0.014913702104443734,0.297208777652843,334.66781819813764,356.235175514363,103.87511935903713
2026-09-21 21:40:27.760838656,0.46205029296874994,-4.32603564453125,9.09975732421875,0.14487596330031055,-0.02024002428460221,0.2822950755483993,334.73248715053415,356.29767860957276,104.02917246336506
2026-09-21 21:40:27.766721280,0.47162646484375,-3.96692919921875,9.05187646484375,0.10972223691126462,-0.014913702104443734,0.28655613329252605,334.79573000090045,356.36128250394694,104.1806258459258
2026-09-21 21:40:27.771853824,0.50993115234375,-3.9070781249999995,8.927386230468748,0.029827404208887468,-0.021305288720633905,0.30146983539696975,334.81791449112967,356.4256990775446,104.34020397341227
2026-09-21 21:40:27.771853824,0.3878349609375,-4.02917431640625,8.920204101562499,-0.03195793308095086,-0.012783173232380343,0.2940129843447479,334.800655488511,356.4909663322307,104.4969713235916
2026-09-21 21:40:27.792454656,0.36868261718749995,-4.39306884765625,8.87950537109375,-0.059654808417774936,-0.024501082028728992,0.2908171910366528,334.7604283115194,356.5554978054461,104.65486307354135
2026-09-21 21:40:27.803591168,0.22743408203124998,-4.5582578125,8.903445800781249,-0.0692421883420602,-0.01597896654047543,0.27590348893220906,334.70913328226476,356.61817685866777,104.80311136245328
2026-09-21 21:40:27.810063872,0.20349365234374997,-4.4672841796875,8.84120068359375,-0.02663161090079238,-0.03302319751698255,0.25566346464760686,334.6735923583839,356.67090442323814,104.94746955617534
2026-09-21 21:40:27.823963136,0.17237109374999998,-4.050720703124999,9.008783691406249,0.04154531300523612,-0.04687163518539459,0.2258360604387194,334.67969784865574,356.7112783888559,105.07894200755725
2026-09-21 21:40:27.835616256,0.23461621093749999,-3.68443212890625,9.1404560546875,0.05219795736555307,-0.06711165946999681,0.2013349784099904,334.7075701499868,356.7333933513324,105.20139776089839
2026-09-21 21:40:27.835616256,0.296861328125,-3.763435546875,9.0782109375,0.005326322180158476,-0.07989483270237714,0.1821602185614199,334.71990618939657,356.7427750403168,105.31755745043345
2026-09-21 21:40:27.853994496,0.36150048828125,-3.88792578125,8.958508789062499,-0.04793689962142629,-0.08735168375459901,0.15978966540475428,334.697430916536,356.7424208190104,105.42455600723586
2026-09-21 21:40:27.853994496,0.40698730468749994,-4.02917431640625,8.932174316406249,-0.05219795736555307,-0.10333065029507445,0.1384843766841204,334.66374101060217,356.7291981820339,105.52318131093298
2026-09-21 21:40:27.868577024,0.43332177734374994,-4.0219921874999995,9.01835986328125,-0.039414784133172724,-0.111852765783328,0.11824435239951818,334.6356072639226,356.704252001525,105.6143999824613
2026-09-21 21:40:27.883650816,0.45247412109374996,-4.017204101562499,9.22903564453125,-0.025566346464760685,-0.12037488127158157,0.09693906367888427,334.6170175317782,356.66986555882073,105.69581951627337
2026-09-21 21:40:27.883650816,0.5266894531249999,-3.8831376953124996,9.152426269531249,-0.019174759848570515,-0.111852765783328,0.08309062601047223,334.6039693456039,356.6336383188945,105.76855207883852
2026-09-21 21:40:27.900570368,0.46205029296874994,-3.6293691406249997,9.02314794921875,-0.023435817592697295,-0.10972223691126462,0.07350324608618697,334.59308573918133,356.5974839869053,105.8342390994571
2026-09-21 21:40:27.931653888,0.48838476562499994,-3.3636303710937496,9.1404560546875,-0.05539375067364816,-0.12250541014364495,0.06072007285380663,334.57022590762074,356.5533372915147,105.89633569893716
2026-09-21 21:40:27.931653888,0.5817524414062499,-3.648521484375,9.1787607421875,-0.1129180302193597,-0.12250541014364495,0.06178533728983833,334.52012954146335,356.5047173674083,105.95800672981966
2026-09-21 21:40:27.947425792,0.6080869140624999,-4.12972412109375,9.025541992187499,-0.15446334322459582,-0.10759170803920122,0.0681769239060285,334.43655035222474,356.4646360318491,106.02051414172227
2026-09-21 21:40:27.947425792,0.5530239257812499,-4.440949707031249,9.06145263671875,-0.12676646788777174,-0.10333065029507445,0.06178533728983833,334.3544041262777,356.42714864362216,106.07890832733509
2026-09-21 21:40:27.963009280,0.50514306640625,-4.44573779296875,9.164396484374999,-0.05219795736555307,-0.10972223691126462,0.04687163518539459,334.3096403461813,356.385903736646,106.13179546248261
2026-09-21 21:40:27.963009280,0.43810986328124996,-4.213515624999999,9.1787607421875,0.0010652644360316954,-0.10972223691126462,0.03195793308095086,334.3013825312968,356.3398699569655,106.17755895481967
2026-09-21 21:40:27.978552576,0.45965625,-3.9597470703124995,9.24339990234375,0.035153726389045944,-0.12037488127158157,0.01384843766841204,334.3185886807215,356.28573492544155,106.21631191128512
2026-09-21 21:40:27.980948480,0.56260009765625,-4.0028398437499995,9.363102050781249,0.04048004856920442,-0.1310275256318985,0.005326322180158476,334.34579335512757,356.2229370401742,106.25218519357445
2026-09-21 21:40:27.996371712,0.641603515625,-4.160846679687499,9.34394970703125,0.03728425526110934,-0.12783173232380343,0.0021305288720633907,334.37074132303184,356.15792449420377,106.28558104761196
2026-09-21 21:40:28.009876992,0.6511796875,-4.105783691406249,9.147638183593749,0.06178533728983833,-0.12144014570761326,0.0021305288720633907,334.40370240847705,356.09530717966425,106.317609826549
2026-09-21 21:40:28.018141184,0.62484521484375,-3.8759555664062497,9.185942871093749,0.10759170803920122,-0.11824435239951818,0.0031957933080950856,334.4610199866129,356.0353706849204,106.34864106225086
2026-09-21 21:40:28.021736960,0.564994140625,-3.6126108398437498,9.214671386718749,0.12144014570761326,-0.11504855909142309,0.0,334.53404820692134,355.9764882603958,106.37711553045526
2026-09-21 21:40:28.036250112,0.62005712890625,-3.3732065429687497,9.324797363281249,0.12570120345174005,-0.12463593901570835,-0.005326322180158476,334.6133856947195,355.91513346491485,106.40441719661008
2026-09-21 21:40:28.036250112,0.6583618164062499,-3.5312133789062496,9.607294433593749,0.09693906367888427,-0.1374191122480887,-0.006391586616190171,334.68445900798844,355.8444951528262,106.43264783984742
2026-09-21 21:40:28.054160384,0.7158188476562499,-3.7538593749999998,9.442105468749999,0.04261057744126781,-0.12783173232380343,-0.004261057744126781,334.72375603548625,355.77535134756613,106.46191099715175
2026-09-21 21:40:28.054160384,0.756517578125,-3.7538593749999998,9.37746630859375,0.039414784133172724,-0.12144014570761326,-0.0010652644360316954,334.7499146519363,355.71186328561447,106.48981064302085
2026-09-21 21:40:28.067674112,0.83552099609375,-3.69400830078125,9.45407568359375,0.059654808417774936,-0.12144014570761326,0.0031957933080950856,334.78866251464444,355.6488270947002,106.52067288777502
2026-09-21 21:40:28.085303040,0.83552099609375,-3.7921640624999995,9.422953125,0.043675841877299504,-0.10759170803920122,0.010652644360316953,334.8223602882298,355.59214042718617,106.55231948734944
2026-09-21 21:40:28.085303040,0.833126953125,-3.86159130859375,9.396618652343749,0.049002164057457984,-0.10120012142301105,0.010652644360316953,334.8533687142368,355.5413158325975,106.5826615739727
2026-09-21 21:40:28.099468544,0.83552099609375,-3.8831376953124996,9.525896972656248,0.06178533728983833,-0.10013485698697935,0.006391586616190171,334.8920840373755,355.4909411888495,106.61151954264372
2026-09-21 21:40:28.117095936,0.80679248046875,-3.9525649414062496,9.59532421875,0.054328486237616457,-0.10013485698697935,0.0031957933080950856,334.92879432239033,355.4402471673311,106.63811802964959
2026-09-21 21:40:28.131087616,0.9264946289062499,-4.12972412109375,9.762907226562499,0.04154531300523612,-0.10226538585904274,-0.0010652644360316954,334.9593719250444,355.386917638627,106.66232118045099
2026-09-21 21:40:28.131087616,0.9336767578124999,-4.25421435546875,9.753331054687498,0.04154531300523612,-0.09693906367888427,-0.005326322180158476,334.98478047618136,355.33373717035283,106.68348551812491
2026-09-21 21:40:28.146850304,0.8834018554687499,-4.203939453125,9.758119140624999,0.07989483270237714,-0.08948221262666241,-0.006391586616190171,335.0267899264277,355.2840536250264,106.70205498113133
2026-09-21 21:40:28.146850304,0.890583984375,-3.9908696289062497,9.741360839843749,0.10972223691126462,-0.08202536157444054,-0.005326322180158476,335.09003774762584,355.2379693155608,106.71907585508515
2026-09-21 21:40:28.162524672,0.8187626953124999,-3.6796440429687496,9.669539550781248,0.12570120345174005,-0.07137271721412358,-0.0031957933080950856,335.16542277327255,355.19885963565963,106.73440642873662
2026-09-21 21:40:28.162524672,0.7948222656249999,-3.48333251953125,9.76530126953125,0.1320927900679302,-0.07243798165015528,-0.0010652644360316954,335.2496044512179,355.16162996425885,106.74949393037798
2026-09-21 21:40:28.179138304,0.8570673828125,-3.48333251953125,9.762907226562499,0.10226538585904274,-0.07669903939428206,0.005326322180158476,335.3228820788613,355.12313855091867,106.76902485436204
2026-09-21 21:40:28.195585792,0.8690375976562499,-3.4785444335937497,9.55941357421875,0.06285060172587002,-0.06711165946999681,0.012783173232380343,335.3724213029492,355.0894819437175,106.79052373224411
2026-09-21 21:40:28.197109248,0.8235507812499999,-3.2870209960937498,9.4181650390625,0.044741106313331204,-0.06498113059793341,0.022370553156665602,335.40855152206433,355.06121323208185,106.81630536146663
2026-09-21 21:40:28.211776000,0.7636997070312499,-3.11464990234375,9.47801611328125,0.022370553156665602,-0.07137271721412358,0.024501082028728992,335.43449981847715,355.0315026434878,106.84476800538256
2026-09-21 21:40:28.225793792,0.7876401367187499,-3.2678686523437497,9.590536132812499,-0.019174759848570515,-0.08735168375459901,0.025566346464760685,335.4401308291115,354.9960449279413,106.87696163095987
2026-09-21 21:40:28.229271552,0.8666435546874999,-3.56951806640625,9.48280419921875,-0.07456851052221868,-0.08735168375459901,0.02876213977285577,335.41086153082654,354.95807989247544,106.91172102210102
2026-09-21 21:40:28.241863680,0.9336767578124999,-3.5910644531249996,9.451681640624999,-0.07669903939428206,-0.09480853480682087,0.02663161090079238,335.3694979159961,354.9176199136928,106.94724138363362
2026-09-21 21:40:28.241863680,0.91691845703125,-3.5479716796874996,9.36549609375,-0.07350324608618697,-0.09480853480682087,0.03621899082507764,335.3316528287883,354.8755413514259,106.98700316007739
2026-09-21 21:40:28.257504256,0.9743754882812499,-3.4234814453124995,9.23861181640625,-0.08415589044650393,-0.08309062601047223,0.049002164057457984,335.2889080884182,354.8414268369359,107.03085659866684
2026-09-21 21:40:28.274280448,0.9791635742187499,-3.5000908203125,9.185942871093749,-0.10652644360316953,-0.07350324608618697,0.06711165946999681,335.2345138349882,354.8161142022767,107.08075254929231
2026-09-21 21:40:28.293378816,1.0390146484375,-3.7777998046874997,9.0782109375,-0.12463593901570835,-0.05219795736555307,0.08948221262666241,335.16621697460624,354.8060317215146,107.1383088870536
2026-09-21 21:40:28.293378816,1.0054980468749999,-4.02438623046875,9.049482421875,-0.1320927900679302,-0.02769687533682408,0.10333065029507445,335.08837276473537,354.8121452107528,107.19827635494279
2026-09-21 21:40:28.322363904,0.96958740234375,-4.184787109375,9.080604980468749,-0.111852765783328,-0.011717908796348648,0.10972223691126462,335.01702872675446,354.8298291536324,107.25829491135778
2026-09-21 21:40:28.322363904,0.8953720703124999,-4.29251904296875,9.071028808593748,-0.0916127414987258,0.0021305288720633907,0.10226538585904274,334.9559741240214,354.8552524813697,107.31303092827532
2026-09-21 21:40:28.354042624,0.8786137695312499,-4.421797363281249,9.08539306640625,-0.06178533728983833,0.0021305288720633907,0.08841694819063071,334.9100337457326,354.8807080206658,107.36039315557014
2026-09-21 21:40:28.369863936,0.9025541992187499,-4.45052587890625,9.104545410156248,-0.03195793308095086,0.0010652644360316954,0.07030745277809189,334.88136070290807,354.90082663450227,107.3984761714047
2026-09-21 21:40:28.386038272,1.05098486328125,-4.493618652343749,9.080604980468749,0.0021305288720633907,0.0,0.04687163518539459,334.8723583081408,354.91409076178445,107.42642450312074
2026-09-21 21:40:28.386038272,1.10365380859375,-4.60853271484375,9.33916162109375,0.039414784133172724,0.005326322180158476,0.03728425526110934,334.88721573459026,354.92352915978756,107.44555814219034
2026-09-21 21:40:28.386038272,1.2856010742187498,-4.792874023437499,9.193124999999998,0.06498113059793341,0.02876213977285577,0.03195793308095086,334.9167449396131,354.9408059487411,107.45856593625756
2026-09-21 21:40:28.386038272,1.10365380859375,-4.5055888671875,9.181154785156249,0.12463593901570835,0.07030745277809189,0.02876213977285577,334.97262740783697,354.9764245521176,107.45893606985204
2026-09-21 21:40:28.401321216,1.1060478515624999,-4.2159096679687496,9.1500322265625,0.19387812735776855,0.08415589044650393,0.021305288720633905,335.07515517544454,355.0223547241047,107.45305025282751
2026-09-21 21:40:28.401321216,1.21377978515625,-3.9693232421874995,9.042300292968749,0.2013349784099904,0.10013485698697935,0.007456851052221867,335.19322393328565,355.0752943575943,107.43584635671321
2026-09-21 21:40:28.401321216,1.0198623046875,-3.9645351562499997,9.221853515625,0.2013349784099904,0.10865697247523291,0.007456851052221867,335.314329621472,355.13194250038043,107.40974019876558
2026-09-21 21:40:28.401321216,0.9193125,-3.9286245117187497,9.308039062499999,0.19281286292173686,0.11504855909142309,-0.025566346464760685,335.43353844847223,355.1811387176056,107.3740314028303
2026-09-21 21:40:28.416394240,1.05577294921875,-4.1895751953125,9.06624072265625,0.18855180517761005,0.08522115488253562,-0.02769687533682408,335.546118563049,355.2268594489147,107.33852338391547
2026-09-21 21:40:28.432204800,1.0868955078125,-3.9908696289062497,9.209883300781248,0.19707392066586363,0.10546117916713783,-0.04048004856920442,335.66091669173005,355.268193608923,107.2919284293768
2026-09-21 21:40:28.447746816,1.0701372070312498,-3.9597470703124995,9.1883369140625,0.2077265650261806,0.08948221262666241,-0.022370553156665602,335.7848667650552,355.310117701328,107.25383007765848
2026-09-21 21:40:28.450393344,0.9576171874999999,-3.6341572265624995,9.33437353515625,0.1821602185614199,0.12037488127158157,-0.039414784133172724,335.9019361649721,355.354501489137,107.20654809771563
2026-09-21 21:40:28.467580672,0.9647993164062499,-3.74667724609375,9.109333496093749,0.16937704532903955,0.11611382352745478,-0.01384843766841204,336.0090157110202,355.41021278729914,107.16964512459974
2026-09-21 21:40:28.473537280,0.83552099609375,-3.6054287109375,9.164396484374999,0.15339807878856412,0.14700649217237394,-0.010652644360316953,336.10504697444907,355.4808740087462,107.13010902588957
2026-09-21 21:40:28.482878464,0.67033203125,-3.6652797851562497,9.24339990234375,0.14913702104443735,0.12357067457967666,0.004261057744126781,336.1976714842716,355.5514489340688,107.09853583158113
2026-09-21 21:40:28.496190464,0.6918784179687499,-3.5288193359374995,9.403800781249998,0.11717908796348649,0.12463593901570835,-0.01597896654047543,336.27849589393765,355.6133433950514,107.06332957536311
2026-09-21 21:40:28.498162176,0.58654052734375,-3.67725,9.408588867187499,0.08522115488253562,0.11078750134729631,-0.006391586616190171,336.3395555389532,355.6734303760972,107.03062012208787
2026-09-21 21:40:28.511233024,0.6463916015625,-3.6916142578124997,9.41098291015625,0.08309062601047223,0.10120012142301105,-0.012783173232380343,336.392786091965,355.72792691652876,107.00151329237
2026-09-21 21:40:28.528459520,0.45247412109374996,-3.6341572265624995,9.643205078125,0.08841694819063071,0.08309062601047223,-0.005326322180158476,336.45006256782887,355.7755153670592,106.97308977330263
2026-09-21 21:40:28.529995520,0.6104809570312499,-3.6724619140624997,9.6671455078125,0.08628641931856731,0.06711165946999681,-0.024501082028728992,336.5084782785723,355.8079348109974,106.94857269019437
2026-09-21 21:40:28.548242688,0.536265625,-3.79934619140625,9.829940429687499,0.10120012142301105,0.05326322180158476,-0.01384843766841204,336.56972085288186,355.83976655766065,106.92445998175505
2026-09-21 21:40:28.554077440,0.6392094726562499,-3.8113164062499996,9.801211914062499,0.14807175660840563,0.043675841877299504,-0.022370553156665602,336.6535445728123,355.86025429778465,106.90439566677603
2026-09-21 21:40:28.569091584,0.7469414062499999,-3.7754057617187495,9.944854492187499,0.18642127630554667,0.03621899082507764,-0.021305288720633905,336.7618480473175,355.8778987845172,106.88253716842821
2026-09-21 21:40:28.569091584,0.85946142578125,-3.7418891601562496,9.911337890625,0.22264026713062432,0.03408846195301425,-0.019174759848570515,336.89069672050306,355.89142380254987,106.864064018372
2026-09-21 21:40:28.584861952,0.80679248046875,-3.5288193359374995,9.880215332031248,0.25566346464760686,0.04793689962142629,-0.02024002428460221,337.0393117202037,355.908981573337,106.84168414838595
2026-09-21 21:40:28.593081344,0.91691845703125,-3.3277197265624996,9.834728515624999,0.297208777652843,0.04793689962142629,-0.022370553156665602,337.2140776420384,355.9275755239041,106.82084211897593
2026-09-21 21:40:28.600596224,0.8570673828125,-2.9422788085937497,9.777271484375,0.3099919508852233,0.07030745277809189,-0.021305288720633905,337.4014411153741,355.95686971770806,106.79226576443023
2026-09-21 21:40:28.616540928,0.8546733398437499,-2.4826225585937496,9.729390624999999,0.3057308931410965,0.07882956826634545,-0.035153726389045944,337.59373744752884,355.98812554125817,106.75838585703274
2026-09-21 21:40:28.621975296,0.8379150390625,-2.26237060546875,9.8490927734375,0.26844663787998724,0.08735168375459901,-0.03621899082507764,337.77311410758506,356.02428901651115,106.71808269791687
2026-09-21 21:40:28.634478848,0.8235507812499999,-2.4275595703125,9.94246044921875,0.18535601186951497,0.08841694819063071,-0.03408846195301425,337.91542807001514,356.0628775923674,106.67805275330592
2026-09-21 21:40:28.664202752,0.8163686523437499,-2.710056640625,9.815576171875,0.09906959255094766,0.10546117916713783,-0.049002164057457984,338.00178451955844,356.10458564454837,106.63141505158691
2026-09-21 21:40:28.664202752,0.8474912109374999,-2.90397412109375,9.856274902343749,0.08415589044650393,0.12783173232380343,-0.06178533728983833,338.0664048013909,356.1548646537949,106.5732125977311
2026-09-21 21:40:28.686744832,0.38544091796874996,-3.0260703125,10.074132812499998,0.10439591473110614,0.13422331893999362,-0.04687163518539459,338.137584599645,356.2172524646089,106.51477473227801
2026-09-21 21:40:28.713373696,0.32319580078125,-3.1242260742187495,9.918520019531249,0.11611382352745478,0.10120012142301105,-0.08948221262666241,338.2181078247238,356.2629366049182,106.45287205548415
2026-09-21 21:40:28.717889792,0.40459326171875,-2.8249707031249995,9.990341308593749,0.10652644360316953,0.09480853480682087,-0.1310275256318985,338.2952629456068,356.29298936414517,106.36237978620423
2026-09-21 21:40:28.717889792,0.39022900390625,-2.9877656249999998,9.935278320312499,0.10546117916713783,0.0692421883420602,-0.11930961683554987,338.3742269898942,356.30916458977214,106.2808683169614
2026-09-21 21:40:28.727992576,0.37347070312499997,-3.1457724609374997,9.923308105468749,0.09267800593475749,0.059654808417774936,-0.1331580545039619,338.4435763945091,356.3188762559145,106.1974060345115
2026-09-21 21:40:28.728496896,0.42853369140625,-3.23674609375,9.90415576171875,0.10013485698697935,0.043675841877299504,-0.1310275256318985,338.51245731493054,356.31977437393925,106.11586521579666
2026-09-21 21:40:28.728496896,0.44768603515624994,-3.1792890624999997,9.901761718749999,0.10972223691126462,0.03302319751698255,-0.12144014570761326,338.5862547658152,356.31553726214014,106.04109996482775
2026-09-21 21:40:28.733598208,0.37347070312499997,-3.1433784179687496,9.940066406249999,0.12144014570761326,0.019174759848570515,-0.111852765783328,338.66650379209653,356.30691791994724,105.97411067472883
2026-09-21 21:40:28.744562944,0.392623046875,-3.0380405273437496,9.9544306640625,0.11611382352745478,0.0,-0.10972223691126462,338.74733555315163,356.2888669350281,105.91316405394028
2026-09-21 21:40:28.746092032,0.44768603515624994,-2.9422788085937497,9.9975234375,0.10333065029507445,-0.01810949541253882,-0.10546117916713783,338.82123761379336,356.2626240273036,105.8582421631429
2026-09-21 21:40:28.759723776,0.50514306640625,-3.0212822265624997,9.930490234374998,0.09480853480682087,-0.04154531300523612,-0.09800432811491597,338.89000339812964,356.225949343288,105.8110583016103
2026-09-21 21:40:28.775492608,0.6463916015625,-2.9590371093749996,10.09328515625,0.07563377495825037,-0.054328486237616457,-0.09587379924285258,338.9491688581574,356.1795354815483,105.76890902142578
2026-09-21 21:40:28.783707648,0.78524609375,-3.0715571289062495,9.97597705078125,0.05113269292952137,-0.05645901510967985,-0.07882956826634545,338.9941257369135,356.1318926765787,105.73493895625884
2026-09-21 21:40:28.792337920,0.8379150390625,-3.0931035156249997,9.9640068359375,0.04687163518539459,-0.05006742849348968,-0.0660463950339651,339.0317073974787,356.0881899548454,105.70825146276619
2026-09-21 21:40:28.808108288,0.8977661132812499,-2.9853715820312496,9.896973632812498,0.043675841877299504,-0.044741106313331204,-0.049002164057457984,339.06744139637885,356.0506380307088,105.68840412925354
2026-09-21 21:40:28.811565312,0.8427031249999999,-2.8632753906249997,9.774877441406248,0.029827404208887468,-0.030892668644919165,-0.03195793308095086,339.0972200340577,356.02283219156834,105.6757780440834
2026-09-21 21:40:28.823090432,0.8857958984375,-2.7962421875,9.779665527343749,0.007456851052221867,-0.025566346464760685,-0.021305288720633905,339.11597593933374,356.0019093516813,105.66744132849618
2026-09-21 21:40:28.829821440,0.8857958984375,-2.8082124023437496,9.73178466796875,-0.023435817592697295,-0.019174759848570515,-0.009587379924285258,339.1165572098763,355.98591066639136,105.66388936332062
2026-09-21 21:40:28.839589888,0.86185546875,-2.9350966796874998,9.779665527343749,-0.05539375067364816,-0.011717908796348648,0.0010652644360316954,339.09750232145535,355.97706244350405,105.66558490782663
2026-09-21 21:40:28.855603200,0.9073422851562499,-3.12901416015625,9.72699658203125,-0.08948221262666241,-0.0031957933080950856,0.008522115488253563,339.0581800662557,355.97388532300783,105.6698363757358
2026-09-21 21:40:28.859798528,0.9025541992187499,-3.21759375,9.65996337890625,-0.10546117916713783,0.007456851052221867,0.014913702104443734,339.0040840195195,355.97840550174544,105.67532888278257
2026-09-21 21:40:28.870616320,0.85946142578125,-3.2654746093749996,9.645599121093749,-0.10972223691126462,0.01810949541253882,0.021305288720633905,338.9455808775651,355.9900782749845,105.68239882776777
2026-09-21 21:40:28.887656704,0.833126953125,-3.21998779296875,9.636022949218749,-0.11717908796348649,0.03195793308095086,0.024501082028728992,338.88322765755754,356.01026542149367,105.68909050577821
2026-09-21 21:40:28.887656704,0.7996103515624999,-3.21998779296875,9.614476562499998,-0.136353847812057,0.035153726389045944,0.02876213977285577,338.81246938312245,356.0341136671739,105.69661783440357
2026-09-21 21:40:28.901998592,0.75412353515625,-3.3875708007812495,9.59293017578125,-0.1576591365326909,0.04048004856920442,0.029827404208887468,338.72874975611,356.0614411733778,105.70389345628682
2026-09-21 21:40:28.901998592,0.7134248046874999,-3.5503657226562497,9.61208251953125,-0.17257283863713463,0.0458063707493629,0.030892668644919165,338.63359508416903,356.09242866006196,105.71070190170599
2026-09-21 21:40:28.918635520,0.67751416015625,-3.6293691406249997,9.573777832031249,-0.17044230976507124,0.043675841877299504,0.02876213977285577,338.5360944342831,356.1235897904512,105.71668542097991
2026-09-21 21:40:28.934784512,0.6870903320312499,-3.7203427734375,9.535473144531249,-0.16831178089300786,0.04261057744126781,0.02663161090079238,338.43919172872563,356.1536506848947,105.7225596357459
2026-09-21 21:40:28.965227520,0.67751416015625,-3.7777998046874997,9.4947744140625,-0.1629854587128494,0.043675841877299504,0.030892668644919165,338.34404937939354,356.1841450561665,105.72848886858868
2026-09-21 21:40:28.977498112,0.6631499023437499,-3.8591972656249998,9.530685058593749,-0.14913702104443735,0.0458063707493629,0.03834951969714103,338.2548211615672,356.217019559089,105.73776244620868
2026-09-21 21:40:28.978625280,0.6392094726562499,-3.8975019531249995,9.458863769531249,-0.1331580545039619,0.054328486237616457,0.044741106313331204,338.1736085153567,356.25510602925306,105.74992691410387
2026-09-21 21:40:28.982558208,0.58654052734375,-3.8831376953124996,9.422953125,-0.11717908796348649,0.06072007285380663,0.049002164057457984,338.10160813446174,356.2982620867205,105.76273013853346
2026-09-21 21:40:28.983581184,0.59132861328125,-3.9310185546875,9.4277412109375,-0.11078750134729631,0.05858954398174324,0.05113269292952137,338.0342485194293,356.3425628698644,105.77745462959273
2026-09-21 21:40:28.985660928,0.5290834960937499,-4.01481005859375,9.40140673828125,-0.10439591473110614,0.054328486237616457,0.043675841877299504,337.97084685331146,356.38383004956233,105.7895587831695
2026-09-21 21:40:29.000960000,0.53387158203125,-4.053114746093749,9.375072265624999,-0.09693906367888427,0.044741106313331204,0.035153726389045944,337.90999991008505,356.4189780928238,105.79937921591738
2026-09-21 21:40:29.013049344,0.53865966796875,-4.069873046874999,9.38225439453125,-0.08415589044650393,0.039414784133172724,0.03302319751698255,337.8553444642653,356.4495805484155,105.80857842496616
2026-09-21 21:40:29.029635840,0.5817524414062499,-4.04114453125,9.394224609375,-0.07350324608618697,0.03834951969714103,0.03302319751698255,337.80799904663775,356.4790853961498,105.81807699452285
2026-09-21 21:40:29.062901248,0.536265625,-4.069873046874999,9.4181650390625,-0.06498113059793341,0.04261057744126781,0.03621899082507764,337.765983678161,356.51089078745235,105.82786507962871
2026-09-21 21:40:29.063895552,0.51471923828125,-4.13451220703125,9.442105468749999,-0.05326322180158476,0.04048004856920442,0.03408846195301425,337.7301088730703,356.5427622343465,105.837198699435
2026-09-21 21:40:29.086610944,0.46444433593749995,-4.223091796875,9.442105468749999,-0.03834951969714103,0.035153726389045944,0.030892668644919165,337.70144178480786,356.5714154692928,105.84588747183395
2026-09-21 21:40:29.089910528,0.5123251953125,-4.213515624999999,9.37746630859375,-0.022370553156665602,0.035153726389045944,0.024501082028728992,337.6812468802304,356.5975090417191,105.85276111082972
2026-09-21 21:40:29.090742528,0.53865966796875,-4.0459326171875,9.34394970703125,0.005326322180158476,0.035153726389045944,0.01597896654047543,337.6773534994556,356.62231882432513,105.85472804786966
2026-09-21 21:40:29.096731136,0.5027490234374999,-4.06269091796875,9.3990126953125,0.0021305288720633907,0.03621899082507764,0.01597896654047543,337.67881928966983,356.64621027515335,105.85520270212162
2026-09-21 21:40:29.096731136,0.5314775390625,-4.1440883789062495,9.363102050781249,-0.0010652644360316954,0.03408846195301425,0.014913702104443734,337.6745877397669,356.67027887335996,105.85570549318173
2026-09-21 21:40:29.106755584,0.5123251953125,-4.13451220703125,9.391830566406249,0.010652644360316953,0.030892668644919165,0.014913702104443734,337.67508692603377,356.6927404048572,105.85722669192435
2026-09-21 21:40:29.117809152,0.507537109375,-4.04832666015625,9.422953125,0.019174759848570515,0.02769687533682408,0.012783173232380343,337.68342283837535,356.7121188539108,105.85795368156411
2026-09-21 21:40:29.121769216,0.48599072265625,-4.1081777343749994,9.403800781249998,0.01810949541253882,0.025566346464760685,0.008522115488253563,337.6924726828758,356.7294098834326,105.85752890860014
2026-09-21 21:40:29.134368512,0.47641455078124995,-4.15605859375,9.408588867187499,0.01597896654047543,0.02024002428460221,0.0021305288720633907,337.6997201837907,356.7430315573791,105.85536096893381
2026-09-21 21:40:29.149850880,0.6176630859375,-4.194363281249999,9.44928759765625,0.021305288720633905,0.01597896654047543,-0.0031957933080950856,337.70849030169956,356.7525050778369,105.850587317999
2026-09-21 21:40:29.153469696,0.64399755859375,-4.2494262695312495,9.403800781249998,0.02876213977285577,0.014913702104443734,-0.007456851052221867,337.72107992811675,356.75924841249633,105.84351686646174
2026-09-21 21:40:29.165807872,0.66793798828125,-4.1895751953125,9.2553701171875,0.04048004856920442,0.023435817592697295,-0.008522115488253563,337.73931128912943,356.76755233249673,105.83402506092399
2026-09-21 21:40:29.167804928,0.6559677734374999,-4.01002197265625,9.21227734375,0.059654808417774936,0.03621899082507764,-0.006391586616190171,337.76750902157477,356.78283919751374,105.82316615643455
2026-09-21 21:40:29.184311552,0.6368154296874999,-3.86159130859375,9.291280761718749,0.06711165946999681,0.04154531300523612,-0.008522115488253563,337.8059411429095,356.80195964242216,105.81012538185088
2026-09-21 21:40:29.198842880,0.5769643554687499,-3.9621411132812496,9.24339990234375,0.023435817592697295,0.04687163518539459,-0.010652644360316953,337.8270308222558,356.82399691659776,105.79423270727679
2026-09-21 21:40:29.199913216,0.5985107421875,-4.089025390624999,9.219459472656249,-0.0010652644360316954,0.05219795736555307,-0.011717908796348648,337.82632156886615,356.84924538391556,105.77649062483748
2026-09-21 21:40:29.214813952,0.5985107421875,-4.15366455078125,9.320009277343749,0.0021305288720633907,0.05006742849348968,-0.01810949541253882,337.82425442331424,356.8723680156614,105.75616044580917
2026-09-21 21:40:29.229819648,0.59611669921875,-4.32603564453125,9.430135253906249,0.0,0.05539375067364816,-0.023435817592697295,337.82232663141997,356.8959435662179,105.73204306478124
2026-09-21 21:40:29.238850816,0.6463916015625,-4.6540195312499995,9.420559082031248,0.012783173232380343,0.06072007285380663,-0.029827404208887468,337.8231226025213,356.92056783811415,105.70375290566723
2026-09-21 21:40:29.244972288,0.7182128906249999,-4.874271484375,9.40140673828125,0.05645901510967985,0.06391586616190172,-0.03834951969714103,337.84129906694056,356.9455574097246,105.67074096285343
2026-09-21 21:40:29.248177152,0.78524609375,-5.1184638671875,9.4660458984375,0.12037488127158157,0.07243798165015528,-0.044741106313331204,337.8920358447741,356.9717842689086,105.63252940696246
2026-09-21 21:40:29.260986112,0.8379150390625,-5.27886474609375,9.413376953124999,0.2024002428460221,0.08628641931856731,-0.049002164057457984,337.98498282991983,357.00270910370625,105.58927963513592
2026-09-21 21:40:29.276624384,0.9073422851562499,-5.3411098632812495,9.315221191406248,0.2982740420888747,0.111852765783328,-0.04687163518539459,338.1284957236781,357.04506124741613,105.54197316052418
2026-09-21 21:40:29.276624384,1.0102861328125,-5.2908349609375,9.214671386718749,0.4101268078722027,0.15020228548046904,-0.03728425526110934,338.33308982301327,357.1073092278356,105.4915244133242
2026-09-21 21:40:29.292702720,1.01507421875,-4.931728515624999,9.071028808593748,0.5305016891437843,0.2002697139739587,-0.022370553156665602,338.6051671214563,357.19656315689093,105.4381470398367
2026-09-21 21:40:29.308547328,0.9432529296875,-4.7162646484375,9.219459472656249,0.6434197193631439,0.24181502697919482,-0.006391586616190171,338.9492163770662,357.3128534927481,105.38409035292028
2026-09-21 21:40:29.309758208,0.86185546875,-4.6588076171875,9.20030712890625,0.695617676728697,0.28655613329252605,0.004261057744126781,339.3323456515716,357.45597368548755,105.32945109205303
2026-09-21 21:40:29.324197376,0.7325771484375,-4.4792543945312495,9.049482421875,0.7542072207104402,0.3185140663734769,0.007456851052221867,339.7452963840853,357.62252579198264,105.27134301347112
2026-09-21 21:40:29.339864576,0.48599072265625,-4.02917431640625,8.88429345703125,0.7968177981517081,0.3366235617860157,0.004261057744126781,340.1895866839308,357.7991915535104,105.2097690254065
2026-09-21 21:40:29.344035584,0.13885449218749998,-3.1170439453124996,8.822048339843748,0.8085357069480568,0.34514567727426926,-0.0021305288720633907,340.6471109663969,357.98594403484856,105.14368589723206
2026-09-21 21:40:29.355915520,-0.1484306640625,-2.1929433593749996,8.975267089843749,0.769120922814884,0.311057215321255,-0.02663161090079238,341.1018840781217,358.1592027365948,105.0721181407454
2026-09-21 21:40:29.357368320,-0.40219921875,-1.8266547851562498,9.30564501953125,0.608265992974098,0.25246767133951176,-0.0458063707493629,341.49192052435984,358.3041667051111,104.99910218453783
2026-09-21 21:40:29.372688128,-0.42135156249999994,-2.06605908203125,9.576171875,0.3376888262220474,0.16085492984078598,-0.08096009713840883,341.74186446069274,358.3996617054248,104.9266749491408
2026-09-21 21:40:29.403455744,-0.18912939453125,-2.5017749023437497,9.552231445312499,0.11078750134729631,0.08202536157444054,-0.11078750134729631,341.8462215271965,358.441866347015,104.85055637981657
2026-09-21 21:40:29.403455744,-0.011970214843749999,-2.8393349609375,9.6001123046875,0.014913702104443734,0.030892668644919165,-0.10865697247523291,341.8718661107071,358.45051870291803,104.78187281866401
2026-09-21 21:40:29.419517184,0.10773193359375,-3.13859033203125,9.703056152343748,-0.007456851052221867,0.0031957933080950856,-0.09267800593475749,341.87320143236786,358.44113334241985,104.72699433388205
2026-09-21 21:40:29.438170880,0.14603662109374999,-3.3899648437499996,9.801211914062499,-0.023435817592697295,0.014913702104443734,-0.0681769239060285,341.86145002736487,358.43645830811846,104.6837103041456
2026-09-21 21:40:29.438170880,0.0383046875,-3.4162993164062496,9.65038720703125,0.0,0.019174759848570515,-0.029827404208887468,341.8536307751874,358.4431088362328,104.65772330627527
2026-09-21 21:40:29.451511552,0.07900341796874999,-3.3468720703124997,9.695874023437499,0.05539375067364816,0.009587379924285258,-0.008522115488253563,341.8754083047706,358.4504096316532,104.6484512456033
2026-09-21 21:40:29.453323520,0.028728515625,-3.27265673828125,9.846698730468749,0.06178533728983833,0.0021305288720633907,0.008522115488253563,341.9109318946195,358.45628093158206,104.64926934317346
2026-09-21 21:40:29.457517568,0.07900341796874999,-3.3851767578125,9.73178466796875,0.035153726389045944,-0.008522115488253563,0.01810949541253882,341.9345581465034,358.457782484469,104.6604889619358
2026-09-21 21:40:29.462972160,0.16997705078124997,-3.41151123046875,9.68390380859375,0.030892668644919165,-0.02024002428460221,0.025566346464760685,341.9498424371024,358.45554560304487,104.67635253569361
2026-09-21 21:40:29.468064512,0.25616259765625,-3.32532568359375,9.643205078125,0.025566346464760685,-0.03195793308095086,0.02769687533682408,341.9644468972481,358.4451949024525,104.6973787835374
2026-09-21 21:40:29.482989312,0.33756005859375,-3.36841845703125,9.68869189453125,0.0,-0.03302319751698255,0.03195793308095086,341.9656541518985,358.43319443704434,104.71993277780967
2026-09-21 21:40:29.485969408,0.3782587890625,-3.5623359375,9.63362890625,-0.012783173232380343,-0.029827404208887468,0.04048004856920442,341.9550229831754,358.4233502641615,104.7463985479527
2026-09-21 21:40:29.501036288,0.3495302734375,-3.5982465820312495,9.5330791015625,-0.005326322180158476,-0.024501082028728992,0.04154531300523612,341.9445547191364,358.41649623287645,104.774100469446
2026-09-21 21:40:29.505001472,0.3208017578125,-3.40193505859375,9.501956542968749,0.017044230976507126,-0.02024002428460221,0.04048004856920442,341.94620274117506,358.41135534505287,104.80065034830704
2026-09-21 21:40:29.524068864,0.32558984375,-3.26308056640625,9.564201660156249,0.02024002428460221,-0.01810949541253882,0.04048004856920442,341.9561687175263,358.40799443308606,104.82628999941807
2026-09-21 21:40:29.530726400,0.32319580078125,-3.2582924804687496,9.568989746093749,0.0,-0.010652644360316953,0.03621899082507764,341.9580896103334,358.4073708984482,104.84911045288946
2026-09-21 21:40:29.547327488,0.335166015625,-3.2942031249999997,9.57856591796875,-0.009587379924285258,-0.009587379924285258,0.030892668644919165,341.95157759283495,358.40809296578556,104.86865582029832
2026-09-21 21:40:29.548688896,0.28728515624999995,-3.2128056640624996,9.691085937499999,-0.019174759848570515,-0.010652644360316953,0.021305288720633905,341.9398345846592,358.4071181354962,104.88336612981665
2026-09-21 21:40:29.568033792,0.28489111328125,-3.2032294921874995,9.63362890625,-0.039414784133172724,-0.009587379924285258,0.011717908796348648,341.92014390916347,358.4044732325535,104.89291751838739
2026-09-21 21:40:29.573043968,0.29207324218749997,-3.2295639648437495,9.5618076171875,-0.059654808417774936,-0.004261057744126781,0.005326322180158476,341.8871275284482,358.40247577534353,104.89735964638793
2026-09-21 21:40:29.600325632,0.26334472656249996,-3.1649248046875,9.5235029296875,-0.06498113059793341,0.0,0.0,341.8481947725677,358.4026542406846,104.89796648180602
2026-09-21 21:40:29.601326080,0.1675830078125,-3.0547988281249996,9.470833984375,-0.07456851052221868,0.0,-0.004261057744126781,341.8070216660946,358.4031038266358,104.89574314847013
2026-09-21 21:40:29.615073536,0.1675830078125,-2.9757954101562496,9.485198242187499,-0.09587379924285258,-0.0031957933080950856,-0.012783173232380343,341.75657481895877,358.401687698927,104.88952418572883
2026-09-21 21:40:29.619088128,0.12688427734375,-3.04282861328125,9.643205078125,-0.12570120345174005,-0.014913702104443734,-0.023435817592697295,341.6910993048055,358.39321591720295,104.87979272464848
2026-09-21 21:40:29.623576832,0.18434130859374998,-3.2606865234374998,9.669539550781248,-0.1576591365326909,-0.02024002428460221,-0.03834951969714103,341.60593809998477,358.37811189363975,104.86428861130491
2026-09-21 21:40:29.628052480,0.24898046875,-3.4450278320312497,9.674327636718749,-0.17150757420110294,-0.02769687533682408,-0.05326322180158476,341.5082463838015,358.35682408137086,104.84153289223126
2026-09-21 21:40:29.651099392,0.27531494140624996,-3.5575478515624996,9.647993164062498,-0.16724651645697616,-0.03195793308095086,-0.06285060172587002,341.4094407344884,358.3293178850373,104.81356139194273
2026-09-21 21:40:29.657333248,0.3208017578125,-3.5024848632812495,9.6671455078125,-0.15020228548046904,-0.03302319751698255,-0.07882956826634545,341.3183141380315,358.2985464008052,104.77832508196278
2026-09-21 21:40:29.667423488,0.35192431640625,-3.5958525390625,9.712632324218749,-0.13954964112015208,-0.035153726389045944,-0.08096009713840883,341.2354603958241,358.26373632047097,104.74072325955711
2026-09-21 21:40:29.667423488,0.39980517578124997,-3.6820380859374997,9.58335400390625,-0.12783173232380343,-0.030892668644919165,-0.08309062601047223,341.1568805388923,358.23075584663417,104.70183555492805
2026-09-21 21:40:29.685118976,0.33756005859375,-3.58867041015625,9.585748046874999,-0.0916127414987258,-0.02663161090079238,-0.08415589044650393,341.09446439874336,358.1999428554446,104.66086835469514
2026-09-21 21:40:29.693116160,0.35431835937499995,-3.456998046875,9.686297851562498,-0.0681769239060285,-0.02769687533682408,-0.08841694819063071,341.0516226629851,358.1683174445574,104.61834749193713
2026-09-21 21:40:29.701167360,0.33277197265624997,-3.4354516601562497,9.65038720703125,-0.05858954398174324,-0.02876213977285577,-0.0905474770626941,341.0163774095867,358.1357223092838,104.57455741121429
2026-09-21 21:40:29.714632704,0.33995410156249994,-3.5096669921875,9.68390380859375,-0.04793689962142629,-0.03195793308095086,-0.09374327037078918,340.9872308016671,358.10181569772,104.52993088133529
2026-09-21 21:40:29.718699008,0.38544091796874996,-3.4809384765624998,9.669539550781248,-0.03302319751698255,-0.03408846195301425,-0.09480853480682087,340.96554086171415,358.0664848070901,104.48400365440581
2026-09-21 21:40:29.731127808,0.35192431640625,-3.3851767578125,9.7054501953125,-0.017044230976507126,-0.03621899082507764,-0.09480853480682087,340.95313977915663,358.02920440917165,104.43884891210818
2026-09-21 21:40:29.761798656,0.33277197265624997,-3.2654746093749996,9.78684765625,-0.004261057744126781,-0.03834951969714103,-0.0905474770626941,340.950024065663,357.99269791647777,104.39587004650588
2026-09-21 21:40:29.761798656,0.35910644531249997,-3.21041162109375,9.801211914062499,-0.009587379924285258,-0.044741106313331204,-0.08415589044650393,340.94870817236864,357.9533223242504,104.35712650745684
2026-09-21 21:40:29.787160320,0.37347070312499997,-3.2511103515624997,9.767695312499999,-0.019174759848570515,-0.0458063707493629,-0.07030745277809189,340.940787029703,357.9152500570983,104.32464519785974
2026-09-21 21:40:29.809339136,0.32558984375,-3.246322265625,9.817970214843749,-0.007456851052221867,-0.0458063707493629,-0.05858954398174324,340.9365675907489,357.8798882969087,104.29900654697659
2026-09-21 21:40:29.815223040,0.42374560546874995,-3.24392822265625,9.83233447265625,-0.004261057744126781,-0.043675841877299504,-0.0458063707493629,340.9362607398137,357.84699902644127,104.28067589441795
2026-09-21 21:40:29.816196864,0.40938134765624995,-3.3564482421874997,9.79402978515625,-0.0031957933080950856,-0.039414784133172724,-0.02663161090079238,340.9349653227406,357.8193645891775,104.27029842244394
2026-09-21 21:40:29.817438208,0.41416943359374997,-3.4426337890624996,9.8203642578125,0.014913702104443734,-0.039414784133172724,-0.011717908796348648,340.9414863101505,357.7948810708407,104.2693051817231
2026-09-21 21:40:29.825384704,0.39022900390625,-3.4402397460937495,9.779665527343749,0.03621899082507764,-0.03728425526110934,0.0,340.9594610405778,357.7747229851249,104.27465677687124
2026-09-21 21:40:29.826603008,0.39980517578124997,-3.4067231445312496,9.753331054687498,0.05326322180158476,-0.03834951969714103,0.009587379924285258,340.9874426527747,357.7554720522424,104.28617805996416
2026-09-21 21:40:29.827247104,0.3878349609375,-3.25350439453125,9.67193359375,0.07137271721412358,-0.03834951969714103,0.01810949541253882,341.0255019329715,357.7380324350229,104.30219013433843
2026-09-21 21:40:29.841160704,0.37586474609375,-3.1553486328124998,9.71023828125,0.07776430383031376,-0.0458063707493629,0.02024002428460221,341.07140791643747,357.71813487556096,104.32163984528198
2026-09-21 21:40:29.851673600,0.42135156249999994,-3.13859033203125,9.75572509765625,0.06498113059793341,-0.05219795736555307,0.023435817592697295,341.1127407983279,357.6955058776151,104.34317902466448
2026-09-21 21:40:29.857185536,0.5027490234374999,-3.20083544921875,9.734178710937499,0.05113269292952137,-0.05539375067364816,0.025566346464760685,341.1459785426591,357.670193571858,104.36743883148044
2026-09-21 21:40:29.872891136,0.5290834960937499,-3.2487163085937496,9.72220849609375,0.044741106313331204,-0.05326322180158476,0.02769687533682408,341.17356615599505,357.64540693923306,104.39256257246626
2026-09-21 21:40:29.888803584,0.5266894531249999,-3.2223818359374996,9.674327636718749,0.04793689962142629,-0.04793689962142629,0.02876213977285577,341.20098476428905,357.62268345150477,104.41788408841403
2026-09-21 21:40:29.904431360,0.5793583984374999,-3.07634521484375,9.707844238281249,0.04793689962142629,-0.0458063707493629,0.03302319751698255,341.22926550668683,357.6021282196758,104.44431458162592
2026-09-21 21:40:29.904431360,0.5697822265625,-2.9781894531249997,9.729390624999999,0.04261057744126781,-0.04048004856920442,0.03408846195301425,341.25700337223316,357.5837982830238,104.47047430562651
2026-09-21 21:40:29.904431360,0.6032988281249999,-3.0547988281249996,9.746148925781249,0.030892668644919165,-0.030892668644919165,0.039414784133172724,341.2794475712116,357.5709859537829,104.49734807448289
2026-09-21 21:40:29.921337088,0.57217626953125,-3.131408203125,9.7150263671875,0.023435817592697295,-0.024501082028728992,0.04261057744126781,341.2962798615571,357.5623167424174,104.52470942991529
2026-09-21 21:40:29.921337088,0.5889345703125,-3.1984414062499997,9.7437548828125,0.023435817592697295,-0.017044230976507126,0.044741106313331204,341.3115233779723,357.558751014127,104.5527507714219
2026-09-21 21:40:29.952355328,0.56738818359375,-3.2247758789062497,9.75572509765625,0.02663161090079238,-0.007456851052221867,0.05113269292952137,341.3269062852125,357.5617160277096,104.58253255384538
2026-09-21 21:40:29.960314624,0.47402050781249994,-3.2487163085937496,9.76051318359375,0.03621899082507764,0.0,0.05539375067364816,341.3462698942121,357.5696544738011,104.61259768566956
2026-09-21 21:40:29.961158656,0.49317285156249996,-3.2582924804687496,9.7437548828125,0.043675841877299504,0.004261057744126781,0.05645901510967985,341.36966725353983,357.58117690504645,104.64285752504145
2026-09-21 21:40:29.968027392,0.46205029296874994,-3.2894150390625,9.700662109375,0.05326322180158476,0.008522115488253563,0.05645901510967985,341.39789430750693,357.59542715155914,104.67226191619088
2026-09-21 21:40:29.983686912,0.3878349609375,-3.246322265625,9.724602539062499,0.06285060172587002,0.010652644360316953,0.05326322180158476,341.4313845469188,357.6115006282577,104.69994477037703
2026-09-21 21:40:29.983686912,0.43332177734374994,-3.16731884765625,9.7054501953125,0.07030745277809189,0.011717908796348648,0.049002164057457984,341.47028541921026,357.6275668298752,104.72510943522107
2026-09-21 21:40:29.999296000,0.44050390624999997,-3.14816650390625,9.662357421874999,0.07030745277809189,0.01597896654047543,0.0458063707493629,341.51121167697863,357.6443256986582,104.74735825241328
2026-09-21 21:40:30.015026688,0.4452919921875,-3.1074677734374996,9.738966796875,0.07030745277809189,0.01597896654047543,0.04048004856920442,341.5522083258736,357.660392882849,104.76690449453956
2026-09-21 21:40:30.015026688,0.47880859374999996,-3.1625307617187497,9.7437548828125,0.05539375067364816,0.019174759848570515,0.03834951969714103,341.58740788728403,357.6767269469775,104.78461779608506
2026-09-21 21:40:30.030662400,0.4452919921875,-3.3181435546874996,9.758119140624999,0.05006742849348968,0.025566346464760685,0.03621899082507764,341.6160682577796,357.6967294361013,104.80025152990436
2026-09-21 21:40:30.046179072,0.39501708984374995,-3.3396899414062498,9.779665527343749,0.05539375067364816,0.02876213977285577,0.030892668644919165,341.6459725540235,357.7178831268648,104.813052170709
2026-09-21 21:40:30.046179072,0.36868261718749995,-3.30617333984375,9.777271484375,0.06072007285380663,0.023435817592697295,0.021305288720633905,341.67908231874924,357.73638974820756,104.82180247574817
2026-09-21 21:40:30.061916672,0.36150048828125,-3.2918090820312496,9.779665527343749,0.06178533728983833,0.021305288720633905,0.011717908796348648,341.71386363791834,357.7524844152031,104.82533213316744
2026-09-21 21:40:30.061916672,0.34474218749999996,-3.2151997070312497,9.72220849609375,0.07669903939428206,0.017044230976507126,0.005326322180158476,341.755120274155,357.7651057449102,104.82615899974815
2026-09-21 21:40:30.077530624,0.38544091796874996,-3.0931035156249997,9.750937011718749,0.07989483270237714,0.01597896654047543,0.004261057744126781,341.8018553136576,357.7760271316452,104.82521838253703
2026-09-21 21:40:30.093146880,0.35192431640625,-2.9781894531249997,9.724602539062499,0.0681769239060285,0.012783173232380343,0.0031957933080950856,341.8446079458215,357.7845275028448,104.82431392051636
2026-09-21 21:40:30.093146880,0.32558984375,-2.90397412109375,9.736572753906248,0.05219795736555307,0.007456851052221867,0.009587379924285258,341.8797346470755,357.7922475581292,104.82724393336741
2026-09-21 21:40:30.110721024,0.35431835937499995,-2.8345468749999996,9.79881787109375,0.03195793308095086,0.0031957933080950856,0.01597896654047543,341.9042908548106,357.7990633180249,104.83410874174851
2026-09-21 21:40:30.137687296,0.36389453125,-2.89200390625,9.774877441406248,0.0031957933080950856,0.0,0.02024002428460221,341.91403882918024,357.80326477823667,104.84422422876254
2026-09-21 21:40:30.137687296,0.36389453125,-2.9542490234375,9.7437548828125,-0.014913702104443734,-0.0031957933080950856,0.025566346464760685,341.9093207655561,357.8069691442113,104.85775215311673
2026-09-21 21:40:30.155141632,0.33277197265624997,-2.997341796875,9.8203642578125,-0.025566346464760685,-0.006391586616190171,0.029827404208887468,341.8968879854044,357.8094855184199,104.87487966862818
