Timestamp,ax,ay,az,gx,gy,gz,roll,pitch,yaw
2026-09-21 21:48:21.260123392,0.9839516601562499,0.0335166015625,10.117225585937499,-0.017044230976507126,0.06498113059793341,-0.0021305288720633907,359.83694639649,353.424625107614,108.16434805320787
2026-09-21 21:48:21.261133056,0.99831591796875,0.009576171875,10.078920898437499,-0.014913702104443734,0.05006742849348968,0.004261057744126781,359.8274410927227,353.4592988180097,108.16631341066491
2026-09-21 21:48:21.267788288,1.03662060546875,0.0143642578125,10.124407714843748,-0.01384843766841204,0.04261057744126781,0.005326322180158476,359.8191400263106,353.487080641025,108.16950937471172
2026-09-21 21:48:21.270358016,1.16589892578125,0.00718212890625,10.0597685546875,-0.025566346464760685,0.04261057744126781,0.010652644360316953,359.8062456965578,353.51401475326765,108.17452284673705
2026-09-21 21:48:21.284365568,1.0581669921874999,-0.1675830078125,10.08610302734375,-0.03195793308095086,0.044741106313331204,0.029827404208887468,359.78574273709927,353.5403632516576,108.18852553291396
2026-09-21 21:48:21.300011008,0.8929780273437499,-0.28489111328125,10.064556640625,-0.01384843766841204,0.043675841877299504,0.05645901510967985,359.7690175300505,353.56858942388374,108.2177746036962
2026-09-21 21:48:21.300011008,0.7182128906249999,-0.30404345703124996,10.155530273437499,0.023435817592697295,0.035153726389045944,0.06391586616190172,359.76893221900855,353.5944870871124,108.25480261506908
2026-09-21 21:48:21.331765504,0.73018310546875,-0.15321875,10.28720263671875,0.05752427954571154,0.01597896654047543,0.06072007285380663,359.79268645932905,353.6122093606866,108.29153060790208
2026-09-21 21:48:21.331765504,0.8403090820312499,0.08379150390625,10.20819921875,0.07137271721412358,-0.0010652644360316954,0.05752427954571154,359.8280992045195,353.6175928108329,108.3250279639158
2026-09-21 21:48:21.364696576,0.9097363281249999,0.296861328125,10.18186474609375,0.08948221262666241,0.007456851052221867,0.059654808417774936,359.8754247685788,353.62317781407273,108.35946318851522
2026-09-21 21:48:21.391717120,0.83073291015625,0.3878349609375,10.28720263671875,0.07776430383031376,0.02663161090079238,0.05539375067364816,359.9237832900751,353.63914327489914,108.39150918884218
2026-09-21 21:48:21.391717120,0.8714316406249999,0.26095068359374995,10.236927734375,0.02024002428460221,0.02769687533682408,0.039414784133172724,359.9468998262034,353.65975980747174,108.41738225943591
2026-09-21 21:48:21.391717120,0.96958740234375,0.13646044921875,10.25368603515625,-0.023435817592697295,0.02663161090079238,0.007456851052221867,359.93848406245024,353.6778332593227,108.42534172640048
2026-09-21 21:48:21.391717120,0.995921875,0.021546386718749998,10.1651064453125,-0.011717908796348648,0.02663161090079238,0.008522115488253563,359.93030098497417,353.69717726355947,108.42942934137375
2026-09-21 21:48:21.391717120,0.9073422851562499,-0.076609375,10.11004345703125,-0.005326322180158476,0.01810949541253882,0.01597896654047543,359.9245797846489,353.7111046134962,108.43830388110388
2026-09-21 21:48:21.405901312,0.9887397460937499,-0.011970214843749999,10.11483154296875,0.02024002428460221,0.009587379924285258,0.01384843766841204,359.9300063760412,353.7214740846619,108.4468955351502
2026-09-21 21:48:21.408160768,1.024650390625,0.05027490234375,10.138771972656249,0.035153726389045944,-0.007456851052221867,0.02769687533682408,359.9488312340519,353.7201315527966,108.46002068684349
2026-09-21 21:48:21.420017920,1.05098486328125,0.01915234375,10.064556640625,0.029827404208887468,0.0,0.030892668644919165,359.9668893670894,353.7193724218321,108.47771198306634
2026-09-21 21:48:21.435035904,1.00789208984375,0.08857958984374999,10.0980732421875,0.03302319751698255,0.007456851052221867,0.02663161090079238,359.98325779494485,353.72537937369003,108.49420393325104
2026-09-21 21:48:21.436390144,0.9360708007812499,0.009576171875,10.026251953125,0.02663161090079238,0.0010652644360316954,0.025566346464760685,359.9997240439451,353.7292824104098,108.50849718204422
2026-09-21 21:48:21.452463360,0.8666435546874999,-0.11012597656249999,10.1363779296875,0.022370553156665602,-0.007456851052221867,0.025566346464760685,0.011253929111910003,353.72878598487733,108.52383966144374
2026-09-21 21:48:21.453027328,0.9264946289062499,-0.13646044921875,10.14356005859375,0.035153726389045944,-0.01597896654047543,0.02876213977285577,0.026835456373562806,353.72328641802096,108.53960746396889
2026-09-21 21:48:21.474073088,0.9480410156249999,-0.10773193359375,10.13158984375,0.04793689962142629,-0.029827404208887468,0.03302319751698255,0.05031573417830728,353.71010376914904,108.55877525356982
2026-09-21 21:48:21.482073600,1.06056103515625,0.011970214843749999,10.11961962890625,0.059654808417774936,-0.0458063707493629,0.03302319751698255,0.08019215369191134,353.68726396107985,108.57850056685308
2026-09-21 21:48:21.494770944,1.16111083984375,0.1005498046875,10.150742187499999,0.0692421883420602,-0.039414784133172724,0.03195793308095086,0.11744383334626715,353.66246142010334,108.59712839233576
2026-09-21 21:48:21.500490496,1.0677431640625,0.05027490234375,10.17707666015625,0.07350324608618697,-0.01810949541253882,0.03728425526110934,0.15923290232085147,353.648746415745,108.61782703497704
2026-09-21 21:48:21.506112512,1.41966748046875,0.17237109374999998,10.162712402343749,0.06711165946999681,0.0,0.006391586616190171,0.1969421587237515,353.64400533591777,108.62918967017916
2026-09-21 21:48:21.519560960,1.2544785156249998,0.011970214843749999,10.102861328125,0.09693906367888427,0.049002164057457984,0.059654808417774936,0.25163499282178586,353.6645970278936,108.65036525782487
2026-09-21 21:48:21.519560960,0.8977661132812499,0.35671240234374996,10.0310400390625,0.07989483270237714,0.04687163518539459,0.014913702104443734,0.29523836386966895,353.68992877781693,108.66704335262682
2026-09-21 21:48:21.537426176,0.3782587890625,0.2537685546875,10.327901367187499,0.09374327037078918,0.05539375067364816,0.07350324608618697,0.34849961571403754,353.7301990609291,108.69934736887372
2026-09-21 21:48:21.537426176,0.7110307617187499,0.13646044921875,10.332689453124999,0.07243798165015528,-0.05645901510967985,0.03834951969714103,0.3936059613328633,353.72412657803767,108.73165163852002
2026-09-21 21:48:21.554289920,1.0438027343749998,0.57217626953125,10.11961962890625,0.06178533728983833,-0.08735168375459901,0.012783173232380343,0.4314186568480612,353.6746323165484,108.73805471040511
2026-09-21 21:48:21.569685248,1.10844189453125,0.6080869140624999,10.11483154296875,0.05539375067364816,-0.044741106313331204,0.05006742849348968,0.46950538088132127,353.6440391842733,108.76077239534966
2026-09-21 21:48:21.569685248,1.15153466796875,0.4452919921875,10.155530273437499,0.02024002428460221,-0.019174759848570515,0.06178533728983833,0.4900305896314019,353.62942444055733,108.79528405902266
2026-09-21 21:48:21.586752256,0.83552099609375,0.3064375,10.05498046875,-0.02024002428460221,0.011717908796348648,0.0660463950339651,0.4818737295155418,353.6331884740473,108.82897089818253
2026-09-21 21:48:21.601260032,1.27123681640625,-0.11012597656249999,10.062162597656249,-0.02876213977285577,-0.005326322180158476,0.06391586616190172,0.4606049532530266,353.6367659187266,108.87221619546132
2026-09-21 21:48:21.603140608,0.8235507812499999,-0.06463916015625,10.141166015624998,0.01597896654047543,0.011717908796348648,0.05858954398174324,0.45875642090607427,353.6385541654462,108.89929492550944
2026-09-21 21:48:21.619731712,0.8810078124999999,0.043092773437499995,10.155530273437499,0.0,-0.02769687533682408,0.007456851052221867,0.4600397127221299,353.63284535948407,108.91911185032538
2026-09-21 21:48:21.635365376,0.8522792968749999,-0.16040087890625,10.15313623046875,0.021305288720633905,-0.03408846195301425,-0.008522115488253563,0.47205632588490404,353.61632324005717,108.91128803526773
2026-09-21 21:48:21.637493760,1.1252001953125,0.124490234375,9.949642578125,0.017044230976507126,-0.06285060172587002,-0.035153726389045944,0.47680880768740097,353.5840613419074,108.89653924961836
2026-09-21 21:48:21.653798144,1.1419584960937499,0.0909736328125,10.327901367187499,0.06498113059793341,-0.06391586616190172,0.008522115488253563,0.5086133126382231,353.54961082808467,108.8942491739984
2026-09-21 21:48:21.656029696,1.2329321289062498,0.20588769531249998,10.18186474609375,0.06391586616190172,-0.05006742849348968,-0.0031957933080950856,0.5496551334702615,353.51627374688604,108.89514226536186
2026-09-21 21:48:21.687245824,1.1754750976562498,0.36868261718749995,10.16989453125,0.05219795736555307,-0.012783173232380343,0.014913702104443734,0.5832339630889468,353.50510726797626,108.89813521770131
2026-09-21 21:48:21.687245824,1.2401142578125,0.43332177734374994,10.189046874999999,0.04048004856920442,-0.03834951969714103,0.019174759848570515,0.6091773324940278,353.48671480781957,108.91145887723978
2026-09-21 21:48:21.704179968,1.04140869140625,0.6009047851562499,10.342265625,0.05645901510967985,-0.011717908796348648,0.017044230976507126,0.6438513130799676,353.47297040169366,108.91903012089654
2026-09-21 21:48:21.721984512,1.0007099609374999,0.5793583984374999,10.260868164062499,0.004261057744126781,0.03408846195301425,0.005326322180158476,0.66149176012886,353.48725202205566,108.92560674744165
2026-09-21 21:48:21.721984512,0.8666435546874999,0.33995410156249994,10.16989453125,-0.06711165946999681,0.06178533728983833,-0.012783173232380343,0.6361501439169431,353.52367338392213,108.91927445946868
2026-09-21 21:48:21.721984512,0.86424951171875,0.11252001953124999,10.095679199218749,-0.09267800593475749,0.03195793308095086,-0.029827404208887468,0.5876948594687197,353.55336608845505,108.90424655015899
2026-09-21 21:48:21.737483776,0.9384648437499999,-0.011970214843749999,10.03822216796875,-0.06711165946999681,0.0010652644360316954,-0.0458063707493629,0.5464699290311832,353.5609735983176,108.87972910026478
2026-09-21 21:48:21.737483776,0.9719814453125,-0.011970214843749999,10.205805175781249,-0.05326322180158476,0.005326322180158476,-0.06285060172587002,0.5166421287289045,353.5665949768094,108.84484088395395
2026-09-21 21:48:21.753006080,0.9504350585937499,0.00718212890625,10.14834814453125,-0.05539375067364816,0.0031957933080950856,-0.06285060172587002,0.4872083495815372,353.57280158859584,108.80714879818153
2026-09-21 21:48:21.757198080,1.0390146484375,-0.021546386718749998,10.062162597656249,-0.03302319751698255,-0.011717908796348648,-0.05539375067364816,0.4663609698813526,353.57157575165763,108.77495087787416
2026-09-21 21:48:21.770356480,1.10365380859375,0.22743408203124998,10.09328515625,-0.004261057744126781,-0.02663161090079238,-0.05113269292952137,0.4632686362081043,353.55922599191047,108.74350762411109
2026-09-21 21:48:21.771919872,1.082107421875,0.26573876953125,10.133983886718749,-0.011717908796348648,-0.02024002428460221,-0.035153726389045944,0.46281971343732276,353.54723463858227,108.72043720207927
2026-09-21 21:48:21.788620032,1.0749252929687498,0.27770898437499997,10.10525537109375,-0.021305288720633905,0.0,-0.030892668644919165,0.4555899838894039,353.5461173888996,108.70082728551878
2026-09-21 21:48:21.804081152,1.0868955078125,0.21306982421874998,10.062162597656249,-0.025566346464760685,0.007456851052221867,-0.007456851052221867,0.44395436918446435,353.55170547137755,108.69200370039115
2026-09-21 21:48:21.804081152,1.09407763671875,0.20828173828125,10.0693447265625,-0.030892668644919165,0.017044230976507126,0.025566346464760685,0.4259311130259702,353.5606738252503,108.7013691446925
2026-09-21 21:48:21.820179712,0.8522792968749999,0.15082470703124998,10.11004345703125,-0.03408846195301425,0.03302319751698255,0.06072007285380663,0.40369476981506086,353.57945289291683,108.73202755471067
2026-09-21 21:48:21.837351680,0.7325771484375,-0.24179833984375,10.196229003906248,-0.02876213977285577,0.010652644360316953,0.10120012142301105,0.3812964486187481,353.59733916413364,108.78635861285908
2026-09-21 21:48:21.841090048,0.9360708007812499,0.22025195312499998,10.078920898437499,-0.03408846195301425,-0.02024002428460221,0.0031957933080950856,0.35597737668398155,353.59044343830783,108.80409506846738
2026-09-21 21:48:21.841090048,1.0533789062499999,-0.028728515625,10.313537109375,-0.03408846195301425,-0.022370553156665602,0.04687163518539459,0.3384648025576561,353.5837837516412,108.82188087066488
2026-09-21 21:48:21.853525248,0.9528291015624999,-0.05745703125,10.00949365234375,-0.03728425526110934,-0.035153726389045944,0.023435817592697295,0.31226965475920426,353.5623245067094,108.84123170563387
2026-09-21 21:48:21.853525248,1.0485908203124998,-0.026334472656249996,10.141166015624998,-0.019174759848570515,-0.03728425526110934,-0.005326322180158476,0.29754936567974244,353.5473644375208,108.8424689882595
2026-09-21 21:48:21.872681216,1.20899169921875,0.047880859374999994,10.05498046875,-0.01597896654047543,-0.04687163518539459,-0.02769687533682408,0.28791179670208045,353.51949796136626,108.82856564380114
2026-09-21 21:48:21.892793088,1.21856787109375,0.00239404296875,10.150742187499999,-0.0010652644360316954,-0.023435817592697295,-0.02024002428460221,0.28489971306065304,353.50306800066033,108.81466919535205
2026-09-21 21:48:21.903468288,1.2975712890625,-0.023940429687499997,10.15313623046875,0.0,-0.007456851052221867,-0.01597896654047543,0.28608202160321916,353.4955509811247,108.8045331829976
2026-09-21 21:48:21.903468288,1.30954150390625,0.0,10.08610302734375,0.011717908796348648,0.012783173232380343,0.0,0.28998388390263513,353.4991009921726,108.80062725554122
2026-09-21 21:48:21.919877120,1.22335595703125,0.05266894531249999,10.251291992187499,0.03728425526110934,0.01810949541253882,0.024501082028728992,0.3061285493316954,353.50791730553107,108.81174158067441
2026-09-21 21:48:21.919877120,1.1587167968749998,0.067033203125,10.268050292968748,0.0458063707493629,0.017044230976507126,0.02876213977285577,0.33062972810205243,353.51796482110257,108.827732680679
2026-09-21 21:48:21.940020480,1.2496904296875,-0.11012597656249999,10.14356005859375,0.02663161090079238,0.012783173232380343,0.014913702104443734,0.348350427075613,353.5265793952604,108.84068871805576
2026-09-21 21:48:21.952611584,1.28320703125,0.27052685546875,9.98076513671875,0.04154531300523612,0.014913702104443734,-0.05006742849348968,0.37029153543625126,353.53280431141576,108.81988349219039
2026-09-21 21:48:21.955634944,1.1491406249999998,0.1292783203125,10.172288574218749,0.022370553156665602,0.03408846195301425,-0.06498113059793341,0.3949258479505853,353.54926370018643,108.78441819066069
2026-09-21 21:48:21.972485120,1.15632275390625,0.17476513671875,10.0980732421875,-0.0031957933080950856,0.044741106313331204,-0.10865697247523291,0.4018149940637636,353.573460274856,108.727948713339
2026-09-21 21:48:21.975146752,1.1587167968749998,0.13167236328124998,10.10525537109375,-0.017044230976507126,0.0681769239060285,-0.1374191122480887,0.4017548995261545,353.61125296333336,108.65131326578238
2026-09-21 21:48:21.991355904,1.2401142578125,0.14364257812499998,10.14834814453125,-0.01810949541253882,0.0660463950339651,-0.1352885833760253,0.4002073996232527,353.65094323403906,108.57195874899105
2026-09-21 21:48:21.991355904,1.0749252929687498,0.026334472656249996,10.189046874999999,-0.005326322180158476,0.08309062601047223,-0.10439591473110614,0.4013367281502674,353.6954287203809,108.50585826975077
2026-09-21 21:48:22.008398592,1.0964716796874998,0.20588769531249998,10.2034111328125,0.035153726389045944,0.10013485698697935,-0.09800432811491597,0.4201865408164769,353.7533037901352,108.45073576227911
2026-09-21 21:48:22.022130432,1.0126801757812498,0.23461621093749999,10.0597685546875,0.054328486237616457,0.12037488127158157,-0.06285060172587002,0.45881981676859296,353.8196112864127,108.40710819222213
2026-09-21 21:48:22.037826304,0.833126953125,0.27770898437499997,10.14356005859375,0.03302319751698255,0.12570120345174005,-0.03302319751698255,0.48196908322355997,353.89272153047773,108.38505843565797
2026-09-21 21:48:22.052790784,0.6559677734374999,0.19870556640624998,10.138771972656249,0.017044230976507126,0.136353847812057,-0.014913702104443734,0.49878208861314804,353.9738572882964,108.37508044326522
2026-09-21 21:48:22.070790912,0.545841796875,0.14364257812499998,10.150742187499999,0.005326322180158476,0.12250541014364495,-0.005326322180158476,0.5050374723002412,354.05204340060396,108.37004994709255
2026-09-21 21:48:22.087512576,0.32798388671874995,0.09336767578124999,10.227351562499999,0.0031957933080950856,0.09693906367888427,0.008522115488253563,0.5073454992427484,354.1182884462934,108.37356221763487
2026-09-21 21:48:22.087512576,0.43332177734374994,0.059851074218749994,10.35902392578125,0.01597896654047543,0.04261057744126781,0.014913702104443734,0.5135128546408695,354.16043727519184,108.3827526849935
2026-09-21 21:48:22.087512576,0.59132861328125,0.17955322265624998,10.263262207031248,0.01810949541253882,-0.01384843766841204,0.0031957933080950856,0.5258625015742254,354.16485687873734,108.38481558415309
2026-09-21 21:48:22.087512576,0.9839516601562499,-0.1005498046875,10.222563476562499,0.008522115488253563,-0.0458063707493629,0.010652644360316953,0.5304132561734741,354.1483282959206,108.39349120385687
2026-09-21 21:48:22.087512576,1.1060478515624999,0.16518896484374998,10.05498046875,0.024501082028728992,-0.05006742849348968,-0.039414784133172724,0.5430355838964377,354.1170008092497,108.37548480842626
2026-09-21 21:48:22.105157888,1.10844189453125,0.20828173828125,10.229745605468748,0.044741106313331204,-0.030892668644919165,-0.043675841877299504,0.5705651242375686,354.09747527532954,108.35093976326237
2026-09-21 21:48:22.121804544,1.1060478515624999,0.0047880859375,10.1938349609375,0.03408846195301425,-0.03408846195301425,-0.0681769239060285,0.5987007230446747,354.07859547908754,108.31593343512662
2026-09-21 21:48:22.121804544,1.350240234375,0.28728515624999995,10.112437499999999,0.023435817592697295,-0.011717908796348648,-0.12996226119586682,0.6201199888752831,354.06661551796446,108.24800171142499
2026-09-21 21:48:22.137679616,1.2018095703124998,0.35431835937499995,10.21538134765625,0.02876213977285577,0.022370553156665602,-0.12037488127158157,0.6481891256297823,354.0727733061661,108.17323449907761
2026-09-21 21:48:22.137679616,0.9384648437499999,0.25616259765625,10.318325195312498,0.03195793308095086,0.03728425526110934,-0.07776430383031376,0.6737218470206608,354.0929086623417,108.12224161829465
2026-09-21 21:48:22.153895168,0.83552099609375,0.17476513671875,10.260868164062499,0.019174759848570515,0.06391586616190172,-0.09693906367888427,0.6932607930440902,354.1266303550142,108.07248369280522
2026-09-21 21:48:22.173240576,0.70145458984375,0.11970214843749999,10.227351562499999,0.007456851052221867,0.08202536157444054,-0.10439591473110614,0.7059179365607929,354.17734452716417,108.01067073376207
2026-09-21 21:48:22.173240576,0.66793798828125,0.0622451171875,10.155530273437499,0.010652644360316953,0.043675841877299504,-0.08735168375459901,0.7156897834089204,354.21304754788304,107.95922340737249
2026-09-21 21:48:22.194011904,0.40459326171875,0.17955322265624998,10.17707666015625,0.04793689962142629,0.012783173232380343,-0.05752427954571154,0.7421072729121514,354.23076368877,107.91979684349984
2026-09-21 21:48:22.196169472,0.45965625,0.11730810546874999,10.205805175781249,0.044741106313331204,-0.0458063707493629,-0.021305288720633905,0.7724625912310186,354.2213954285848,107.90264856934579
2026-09-21 21:48:22.211287296,0.6823022460937499,0.23222216796874998,10.0214638671875,0.043675841877299504,-0.09587379924285258,-0.010652644360316953,0.7986489756540486,354.17696893124895,107.89395191538541
2026-09-21 21:48:22.227271936,0.9312827148437499,0.28967919921874996,9.9831591796875,0.06391586616190172,-0.10652644360316953,0.019174759848570515,0.8341877842225334,354.12012831555023,107.89936926274137
2026-09-21 21:48:22.230270464,1.1587167968749998,0.28967919921874996,9.87542724609375,0.06711165946999681,-0.09906959255094766,0.05006742849348968,0.8735085479345127,354.0613832021267,107.92311546715146
2026-09-21 21:48:22.236177920,1.2018095703124998,0.34234814453124995,9.806,0.04048004856920442,-0.04793689962142629,0.05326322180158476,0.899736251383077,354.02276904993454,107.95334010175571
2026-09-21 21:48:22.251194880,1.06534912109375,0.21306982421874998,10.019069824218748,0.03728425526110934,-0.008522115488253563,0.08309062601047223,0.9204078839855114,354.0130447446887,107.9971488657215
2026-09-21 21:48:22.270513920,0.9217065429687499,-0.00239404296875,10.0884970703125,0.01810949541253882,-0.0010652644360316954,0.07456851052221868,0.9296768932869052,354.00945406507657,108.04278523784251
2026-09-21 21:48:22.270513920,0.7972163085937499,-0.06463916015625,10.133983886718749,0.01810949541253882,-0.0021305288720633907,0.04687163518539459,0.9344900878121113,354.0111135189469,108.07456209881408
2026-09-21 21:48:22.270513920,0.8690375976562499,0.09336767578124999,10.212987304687498,0.04154531300523612,-0.044741106313331204,0.008522115488253563,0.9521035956028531,353.9943450007711,108.08549743187811
2026-09-21 21:48:22.284073984,1.139564453125,0.28967919921874996,10.311143066406249,0.04793689962142629,-0.07456851052221868,-0.01810949541253882,0.9811234705336197,353.95713991357746,108.07746295029088
2026-09-21 21:48:22.300980224,1.3047534179687499,0.258556640625,10.24889794921875,0.03834951969714103,-0.08415589044650393,-0.011717908796348648,1.0083033490801132,353.9087494200761,108.06690298451716
2026-09-21 21:48:22.300980224,1.4579721679687498,0.26334472656249996,10.04779833984375,0.035153726389045944,-0.05539375067364816,-0.029827404208887468,1.0312574946289876,353.8679040488114,108.05355842038712
2026-09-21 21:48:22.318403072,1.2951772460937498,0.31840771484374997,10.14356005859375,0.05752427954571154,0.010652644360316953,-0.05113269292952137,1.065815053995234,353.86196615465985,108.02449318601927
2026-09-21 21:48:22.330970880,1.09886572265625,0.20349365234374997,10.20819921875,0.04687163518539459,0.03621899082507764,-0.04793689962142629,1.0990394595250599,353.8794940386998,107.99749257412923
2026-09-21 21:48:22.335273216,1.1108359374999999,0.27531494140624996,10.22495751953125,0.07882956826634545,0.06072007285380663,-0.030892668644919165,1.1421545336917658,353.912132128951,107.97625115177259
2026-09-21 21:48:22.346868480,0.9719814453125,0.29446728515625,10.179470703124998,0.08096009713840883,0.07456851052221868,-0.014913702104443734,1.1909123102242083,353.9541368129211,107.96655539814016
2026-09-21 21:48:22.346868480,0.8427031249999999,0.38304687499999995,10.22495751953125,0.07669903939428206,0.07563377495825037,-0.022370553156665602,1.239499058155261,354.00038429905777,107.95506088961004
2026-09-21 21:48:22.362640384,0.7948222656249999,0.38065283203124994,10.311143066406249,0.05219795736555307,0.059654808417774936,-0.007456851052221867,1.2759861310745193,354.04171581278,107.94767199079416
2026-09-21 21:48:22.378143744,0.7972163085937499,0.28967919921874996,10.117225585937499,0.035153726389045944,0.03621899082507764,0.0021305288720633907,1.300100764016906,354.0686192834382,107.94892781210804
2026-09-21 21:48:22.378143744,0.7158188476562499,0.258556640625,10.160318359375,0.01810949541253882,0.029827404208887468,0.012783173232380343,1.313195220454013,354.0900070991018,107.95474899655672
2026-09-21 21:48:22.393762304,0.6463916015625,0.2681328125,10.11004345703125,0.01810949541253882,0.0010652644360316954,0.03302319751698255,1.3223682323973678,354.100127993154,107.97170668915095
2026-09-21 21:48:22.426795264,0.622451171875,0.29207324218749997,10.150742187499999,0.024501082028728992,-0.04793689962142629,0.03195793308095086,1.3349466669641379,354.0846832951622,107.99048989960582
2026-09-21 21:48:22.426795264,0.8786137695312499,0.2681328125,10.1268017578125,0.008522115488253563,-0.08309062601047223,0.025566346464760685,1.3423737330240604,354.04445292586513,108.00593558509836
2026-09-21 21:48:22.446318336,1.01507421875,0.25616259765625,10.04301025390625,0.0010652644360316954,-0.06285060172587002,0.025566346464760685,1.3436396140253652,354.00475470453097,108.01869232026382
2026-09-21 21:48:22.487005440,1.0485908203124998,0.07182128906249999,10.078920898437499,0.014913702104443734,-0.030892668644919165,0.05219795736555307,1.3479351961503572,353.98301436635546,108.04390573716007
2026-09-21 21:48:22.488509184,1.04619677734375,0.021546386718749998,10.026251953125,0.039414784133172724,-0.011717908796348648,0.05858954398174324,1.3613907082033814,353.97228356852634,108.07792493355726
2026-09-21 21:48:22.511476736,1.082107421875,-0.067033203125,10.083708984374999,0.07243798165015528,0.011717908796348648,0.05006742849348968,1.394555169916877,353.97557338191535,108.10891985663454
2026-09-21 21:48:22.511476736,1.0294384765625,-0.13406640625,10.04779833984375,0.08202536157444054,0.029827404208887468,0.04793689962142629,1.4329029522739334,353.9897621692161,108.13845466323957
2026-09-21 21:48:22.511476736,0.890583984375,0.17476513671875,10.184258789062499,0.11717908796348649,0.03408846195301425,0.029827404208887468,1.4893793805400202,354.01005518137293,108.15892040152741
2026-09-21 21:48:22.511476736,0.9432529296875,0.39980517578124997,10.284808593749998,0.1331580545039619,0.009587379924285258,0.04793689962142629,1.5632171099897028,354.02108250812483,108.18340796424803
2026-09-21 21:48:22.522209024,0.9241005859374999,0.56738818359375,10.212987304687498,0.1129180302193597,-0.0010652644360316954,0.05752427954571154,1.6302028629300105,354.02199331311675,108.2166262689951
2026-09-21 21:48:22.522209024,0.8403090820312499,0.64878564453125,10.2800205078125,0.07776430383031376,-0.008522115488253563,0.05858954398174324,1.6809520167947092,354.01967960834503,108.24895611894539
2026-09-21 21:48:22.525960192,0.9839516601562499,0.57217626953125,10.217775390624999,0.054328486237616457,-0.03408846195301425,0.0660463950339651,1.7154180836136774,354.00517708668986,108.28608219145531
2026-09-21 21:48:22.536465408,1.1874453125,0.46683837890624996,10.129195800781249,0.03302319751698255,-0.029827404208887468,0.06391586616190172,1.7369354598415765,353.98514808897653,108.3226015473878
2026-09-21 21:48:22.536465408,1.120412109375,0.35192431640625,10.145954101562499,0.023435817592697295,0.0010652644360316954,0.06498113059793341,1.7489182711934221,353.9784229138871,108.36003787928892
2026-09-21 21:48:22.552096000,0.88818994140625,0.19152343749999998,10.18186474609375,0.03195793308095086,0.012783173232380343,0.07669903939428206,1.7626069997667069,353.984938908324,108.4031335557287
2026-09-21 21:48:22.554648576,0.8474912109374999,-0.01675830078125,10.18665283203125,0.012783173232380343,-0.01810949541253882,0.05006742849348968,1.768095972450088,353.98032842618375,108.43717743703377
2026-09-21 21:48:22.568882688,0.9193125,0.00718212890625,10.04301025390625,0.03302319751698255,-0.03728425526110934,0.009587379924285258,1.7783119846224287,353.96337707992416,108.44858409575887
2026-09-21 21:48:22.583830272,1.48670068359375,-0.009576171875,10.028645996093749,0.05858954398174324,-0.05113269292952137,-0.02024002428460221,1.8078120438604526,353.9354825912011,108.44001460773272
2026-09-21 21:48:22.587069696,1.292783203125,0.6056928710937499,9.961612792968749,0.11504855909142309,0.004261057744126781,-0.01384843766841204,1.8636909963149906,353.9229456462571,108.42573010476654
2026-09-21 21:48:22.599575552,0.9767695312499999,0.29925537109375,10.3087490234375,0.1129180302193597,0.05113269292952137,0.024501082028728992,1.933931157850759,353.948162868746,108.43926844421875
2026-09-21 21:48:22.599575552,0.5889345703125,0.47880859374999996,10.272838378906249,0.07882956826634545,0.024501082028728992,-0.0031957933080950856,1.9828740476424889,353.9688092469579,108.44048133429162
2026-09-21 21:48:22.615207424,0.9743754882812499,0.36628857421875,10.2991728515625,0.07669903939428206,-0.030892668644919165,-0.012783173232380343,2.0288814133662765,353.96676271570016,108.43549754495407
2026-09-21 21:48:22.630831616,1.1922333984375,0.8139746093749999,10.155530273437499,0.08522115488253562,-0.04793689962142629,-0.0458063707493629,2.0797607985666984,353.93665870037273,108.41060200083699
2026-09-21 21:48:22.630831616,1.03662060546875,0.62484521484375,10.155530273437499,0.08415589044650393,0.023435817592697295,-0.029827404208887468,2.1398895618534035,353.9412136841876,108.39024881299508
2026-09-21 21:48:22.646461696,1.0198623046875,0.50514306640625,10.112437499999999,-0.008522115488253563,0.035153726389045944,-0.10120012142301105,2.154989961762722,353.9635250692127,108.34541304201481
2026-09-21 21:48:22.662082816,1.09407763671875,0.25616259765625,10.019069824218748,-0.024501082028728992,0.0692421883420602,-0.11611382352745478,2.1468775764494823,354.00175124276154,108.27883840362729
2026-09-21 21:48:22.662082816,1.0007099609374999,0.124490234375,9.978371093749999,0.008522115488253563,0.07563377495825037,-0.09587379924285258,2.1509251700161536,354.04733861433334,108.22079926931335
2026-09-21 21:48:22.681285888,1.0318325195312499,0.10294384765624999,9.98076513671875,0.05113269292952137,0.07776430383031376,-0.07030745277809189,2.1763890241933845,354.0940834567496,108.17923446336303
2026-09-21 21:48:22.681285888,0.7421533203124999,0.43810986328124996,10.045404296874999,0.10546117916713783,0.09693906367888427,-0.03408846195301425,2.2294972427792055,354.1479058742734,108.15383983009778
2026-09-21 21:48:22.694779392,0.75412353515625,0.42374560546874995,10.157924316406248,0.12889699675983513,0.07563377495825037,0.006391586616190171,2.3040388707272226,354.2009574759233,108.15758316818055
2026-09-21 21:48:22.710000896,0.6870903320312499,0.56260009765625,10.196229003906248,0.08309062601047223,0.039414784133172724,0.02663161090079238,2.357534136814256,354.2313302579346,108.16837488788829
2026-09-21 21:48:22.724150016,0.8187626953124999,0.51711328125,10.08131494140625,0.08628641931856731,0.0,0.04261057744126781,2.404934772998028,354.2395701731492,108.19297148160314
2026-09-21 21:48:22.734150144,0.9576171874999999,0.7349711914062499,10.20819921875,0.10439591473110614,-0.012783173232380343,0.022370553156665602,2.462009595803631,354.2342960925099,108.20937834203748
2026-09-21 21:48:22.740152320,0.967193359375,0.9025541992187499,10.1746826171875,0.10439591473110614,-0.0021305288720633907,-0.012783173232380343,2.528730524148038,354.23163350301917,108.20635148931181
2026-09-21 21:48:22.741151232,1.0438027343749998,0.6511796875,10.19144091796875,0.023435817592697295,0.004261057744126781,-0.03302319751698255,2.563814195332225,354.23530930984356,108.18879248497149
2026-09-21 21:48:22.765493248,1.1539287109374998,0.36868261718749995,10.138771972656249,-0.017044230976507126,0.012783173232380343,-0.043675841877299504,2.5574126554261616,354.2420920919492,108.16470800220382
2026-09-21 21:48:22.769491200,1.15632275390625,0.35192431640625,10.13158984375,0.030892668644919165,0.035153726389045944,-0.03195793308095086,2.5680127355531104,354.25950428727845,108.14472958174208
2026-09-21 21:48:22.785748992,0.9073422851562499,0.45008007812499995,10.1363779296875,0.07456851052221868,0.044741106313331204,-0.021305288720633905,2.607645466013663,354.28359153723596,108.1323979899041
2026-09-21 21:48:22.785748992,0.7948222656249999,0.51950732421875,10.141166015624998,0.07137271721412358,0.04048004856920442,-0.02769687533682408,2.652461848742638,354.3109637818599,108.11908185912618
2026-09-21 21:48:22.821519104,0.8953720703124999,0.50514306640625,10.117225585937499,0.05113269292952137,0.014913702104443734,-0.0692421883420602,2.688053359785458,354.32834671329067,108.08682656659597
2026-09-21 21:48:22.823574784,0.9217065429687499,0.6870903320312499,10.035828124999998,0.04687163518539459,0.0031957933080950856,-0.09906959255094766,2.7219663846723194,354.33454268642083,108.03163407357596
2026-09-21 21:48:22.847633920,0.9145244140625,0.75412353515625,10.08610302734375,0.03728425526110934,0.012783173232380343,-0.10013485698697935,2.753860320785966,354.3442546925054,107.97342331319764
2026-09-21 21:48:22.853613312,0.775669921875,0.7038486328125,10.196229003906248,0.019174759848570515,0.014913702104443734,-0.10013485698697935,2.7757181895611867,354.35815821865276,107.91602607761824
2026-09-21 21:48:22.854625792,0.7660937499999999,0.6583618164062499,10.239321777343749,-0.004261057744126781,-0.0010652644360316954,-0.10226538585904274,2.784174011717486,354.36633898022484,107.85707774090918
2026-09-21 21:48:22.856644352,0.7900341796874999,0.7684877929687499,10.28720263671875,-0.006391586616190171,-0.023435817592697295,-0.10439591473110614,2.787914183854076,354.3616857327054,107.79567382124667
2026-09-21 21:48:22.860587264,0.9719814453125,0.75412353515625,10.31593115234375,-0.007456851052221867,-0.024501082028728992,-0.07563377495825037,2.7926361011047067,354.35247088574505,107.74629328528141
2026-09-21 21:48:22.870011392,1.0390146484375,0.61526904296875,10.2321396484375,-0.03195793308095086,-0.019174759848570515,-0.043675841877299504,2.7837572910886093,354.3427045709976,107.71539848523337
2026-09-21 21:48:22.870011392,1.0390146484375,0.49317285156249996,10.160318359375,-0.04793689962142629,0.0,-0.023435817592697295,2.7600112712944083,354.3406086242473,107.69888903258924
2026-09-21 21:48:22.885618176,0.9384648437499999,0.39980517578124997,10.16989453125,-0.04154531300523612,0.025566346464760685,-0.011717908796348648,2.733987468370716,354.3540442030157,107.69153731329232
2026-09-21 21:48:22.901245696,0.8690375976562499,0.536265625,10.1363779296875,-0.021305288720633905,0.02024002428460221,-0.012783173232380343,2.718414177404424,354.37011021852845,107.68427595796646
2026-09-21 21:48:22.902003968,0.8498852539062499,0.61526904296875,10.107649414062498,-0.019174759848570515,0.005326322180158476,-0.0031957933080950856,2.708759925390012,354.37736881043406,107.68072546819933
2026-09-21 21:48:22.918893312,0.8163686523437499,0.6511796875,10.18186474609375,-0.03621899082507764,0.0021305288720633907,0.0010652644360316954,2.691489557496704,354.38206403692664,107.68094190623367
2026-09-21 21:48:22.919939072,0.9193125,0.6511796875,10.102861328125,-0.05219795736555307,-0.0021305288720633907,-0.009587379924285258,2.6661300493528555,354.3833783075915,107.6769983735454
2026-09-21 21:48:22.933957888,0.9073422851562499,0.5889345703125,10.155530273437499,-0.06711165946999681,0.007456851052221867,-0.008522115488253563,2.6315079480337036,354.3884145175843,107.67113671923555
2026-09-21 21:48:22.933957888,0.8810078124999999,0.55781201171875,10.0597685546875,-0.06711165946999681,0.007456851052221867,0.0,2.5930376429675346,354.39554632087885,107.66971099858796
2026-09-21 21:48:22.949933824,0.7397592773437499,0.59372265625,10.13158984375,-0.06178533728983833,0.007456851052221867,0.005326322180158476,2.5575006380187295,354.40317146720355,107.67226722073407
2026-09-21 21:48:22.965080320,0.7325771484375,0.64399755859375,10.2034111328125,-0.0681769239060285,-0.007456851052221867,-0.007456851052221867,2.5213018219524197,354.4056294379808,107.67019160267763
2026-09-21 21:48:22.965080320,0.8379150390625,0.6080869140624999,10.16989453125,-0.09587379924285258,-0.030892668644919165,-0.035153726389045944,2.474576511285172,354.3949837294964,107.65341211403164
2026-09-21 21:48:22.981694720,0.9528291015624999,0.5602060546875,10.1746826171875,-0.12463593901570835,-0.04261057744126781,-0.05752427954571154,2.4115066307122546,354.37488597869674,107.6209780181928
2026-09-21 21:48:23.001643264,0.8738256835937499,0.5027490234374999,10.184258789062499,-0.1331580545039619,-0.039414784133172724,-0.043675841877299504,2.3397342577715037,354.35463427291836,107.59135705892983
2026-09-21 21:48:23.012652544,0.8977661132812499,0.40459326171875,10.172288574218749,-0.12783173232380343,-0.049002164057457984,-0.022370553156665602,2.267799929283324,354.33070107599707,107.57425379417855
2026-09-21 21:48:23.023744768,1.1730810546875,0.13646044921875,10.023857910156249,-0.1310275256318985,-0.05539375067364816,-0.04154531300523612,2.1944485171420895,354.30126190138265,107.553806916403
2026-09-21 21:48:23.033111808,1.2065976562499998,0.25137451171874997,10.01667578125,-0.111852765783328,-0.014913702104443734,-0.043675841877299504,2.126944117046756,354.28471141631394,107.52522414902066
2026-09-21 21:48:23.046502912,1.0773193359375,0.10533789062499999,9.990341308593749,-0.0660463950339651,0.017044230976507126,0.02769687533682408,2.0792771367829928,354.2904879073779,107.53021663913903
2026-09-21 21:48:23.052344832,0.9264946289062499,-0.05027490234375,10.03822216796875,-0.023435817592697295,0.02769687533682408,0.0681769239060285,2.0525922281030318,354.3040575982659,107.5672275479149
2026-09-21 21:48:23.065349120,0.8810078124999999,-0.0813974609375,10.083708984374999,0.006391586616190171,0.04154531300523612,0.05858954398174324,2.044056297972877,354.3269898746761,107.60497530977368
2026-09-21 21:48:23.071152640,0.9025541992187499,0.16518896484374998,10.0310400390625,0.04154531300523612,0.049002164057457984,0.03728425526110934,2.056246834799733,354.3546797436401,107.63088939064232
2026-09-21 21:48:23.084936704,0.58654052734375,0.28489111328125,10.11961962890625,0.07563377495825037,0.05326322180158476,0.06285060172587002,2.0910091884916477,354.3876136021011,107.66251564496507
2026-09-21 21:48:23.086988288,0.8738256835937499,0.3112255859375,10.0310400390625,0.08735168375459901,0.011717908796348648,0.07563377495825037,2.134848580336977,354.40248152509264,107.70932536944672
2026-09-21 21:48:23.109432832,0.48838476562499994,0.75891162109375,10.0980732421875,0.11078750134729631,0.012783173232380343,0.10333065029507445,2.1920871837853944,354.40961683467606,107.76027464143964
2026-09-21 21:48:23.109432832,0.42135156249999994,0.6655439453124999,10.222563476562499,0.12037488127158157,-0.035153726389045944,0.10120012142301105,2.260643131028795,354.40284928848325,107.82319228682067
2026-09-21 21:48:23.118437632,0.756517578125,0.7996103515624999,10.16989453125,0.044741106313331204,-0.10439591473110614,0.03621899082507764,2.3006119157440654,354.35566140381434,107.85079090152892
2026-09-21 21:48:23.118437632,1.0438027343749998,0.9576171874999999,10.133983886718749,-0.011717908796348648,-0.09693906367888427,0.05006742849348968,2.3026846769028655,354.29804383103186,107.87152290071556
2026-09-21 21:48:23.158671104,0.9887397460937499,0.73018310546875,10.236927734375,-0.024501082028728992,-0.07776430383031376,0.12250541014364495,2.2899127053555075,354.2497915145531,107.92944043169753
2026-09-21 21:48:23.159659776,0.8786137695312499,0.47402050781249994,10.301566894531248,-0.030892668644919165,-0.06498113059793341,0.11398329465539139,2.2684275164810743,354.208432658792,107.99926828484125
2026-09-21 21:48:23.186465536,1.09407763671875,0.6655439453124999,10.373388183593748,-0.04793689962142629,-0.04261057744126781,0.03195793308095086,2.24202782056034,354.1813045747776,108.02776448955024
2026-09-21 21:48:23.202931712,1.3550283203125,0.641603515625,10.205805175781249,-0.0660463950339651,-0.014913702104443734,0.029827404208887468,2.2077511028351875,354.16722836593516,108.04256337454471
2026-09-21 21:48:23.202931712,1.197021484375,0.5219013671874999,10.11004345703125,-0.06711165946999681,0.023435817592697295,0.04793689962142629,2.1679240969893208,354.17051847323773,108.06892141203275
2026-09-21 21:48:23.218610944,0.99831591796875,0.51950732421875,10.29199072265625,-0.05006742849348968,0.05006742849348968,0.04261057744126781,2.134430823845714,354.1972317025486,108.09647762070266
2026-09-21 21:48:23.218610944,1.07253125,0.5242954101562499,10.172288574218749,-0.059654808417774936,0.017044230976507126,0.022370553156665602,2.1026260747191334,354.21336203530035,108.11283149261608
2026-09-21 21:48:23.218610944,1.16589892578125,0.51950732421875,10.14834814453125,-0.08096009713840883,0.0,0.021305288720633905,2.0591397144631878,354.21428548869983,108.12493209698626
2026-09-21 21:48:23.218610944,1.12998828125,0.44768603515624994,10.1746826171875,-0.08202536157444054,0.009587379924285258,0.02024002428460221,2.0116002737311995,354.2168023310046,108.13653879399675
2026-09-21 21:48:23.234184192,1.00310400390625,0.47641455078124995,10.1746826171875,-0.08415589044650393,0.011717908796348648,0.01810949541253882,1.9635569761448939,354.2241734116025,108.1477036446998
2026-09-21 21:48:23.234184192,0.8857958984375,0.44768603515624994,10.155530273437499,-0.09906959255094766,-0.009587379924285258,0.024501082028728992,1.9087793761174956,354.22317281288645,108.16096312054034
2026-09-21 21:48:23.251549440,0.9552231445312499,0.48838476562499994,10.117225585937499,-0.10226538585904274,-0.021305288720633905,0.014913702104443734,1.850088609973707,354.21320006317654,108.17116800668455
2026-09-21 21:48:23.251549440,0.96958740234375,0.545841796875,10.050192382812499,-0.1129180302193597,-0.005326322180158476,-0.0021305288720633907,1.7896232012934399,354.2080688188147,108.17195943967971
2026-09-21 21:48:23.265784320,0.9528291015624999,0.45008007812499995,10.0980732421875,-0.136353847812057,0.021305288720633905,0.0,1.7172699987998583,354.2183192858548,108.17042761647306
2026-09-21 21:48:23.265784320,0.9049482421874999,0.25137451171874997,10.026251953125,-0.15020228548046904,0.03195793308095086,-0.0010652644360316954,1.6323375886908744,354.23696142204125,108.17080084963557
2026-09-21 21:48:23.287348736,0.7948222656249999,0.13406640625,10.090891113281248,-0.12676646788777174,0.04154531300523612,-0.008522115488253563,1.553559729415784,354.2625015282089,108.16691251290295
2026-09-21 21:48:23.297453824,0.7708818359374999,0.09336767578124999,10.14356005859375,-0.09480853480682087,0.044741106313331204,-0.017044230976507126,1.4932543649079244,354.2920609552754,108.15950019852426
2026-09-21 21:48:23.297453824,0.6080869140624999,0.14364257812499998,10.14356005859375,-0.07243798165015528,0.02769687533682408,-0.02024002428460221,1.4475874522805692,354.3163883702378,108.14756726384805
2026-09-21 21:48:23.313090048,0.7062426757812499,0.124490234375,10.011887695312499,-0.0660463950339651,-0.014913702104443734,-0.024501082028728992,1.4087437676597436,354.3188598571535,108.13535169093618
2026-09-21 21:48:23.328880128,0.8714316406249999,0.29446728515625,10.035828124999998,-0.06498113059793341,-0.03621899082507764,-0.030892668644919165,1.371710778301224,354.30420449789483,108.11625956036131
2026-09-21 21:48:23.328880128,0.8474912109374999,0.38065283203124994,10.11961962890625,-0.05006742849348968,-0.05752427954571154,0.0010652644360316954,1.3415134274827474,354.27644061679456,108.11052377653137
2026-09-21 21:48:23.348769024,0.756517578125,0.3782587890625,10.11961962890625,-0.039414784133172724,-0.07243798165015528,0.03728425526110934,1.3180382864307865,354.2396942415946,108.12690153068168
2026-09-21 21:48:23.361421312,0.8403090820312499,0.37107666015624996,10.100467285156249,-0.04687163518539459,-0.08948221262666241,0.043675841877299504,1.2909908803113883,354.1939971962611,108.15014538728174
2026-09-21 21:48:23.361421312,0.9528291015624999,0.430927734375,10.062162597656249,-0.06178533728983833,-0.08628641931856731,0.06178533728983833,1.2558388513375376,354.14496421618185,108.18100958115134
2026-09-21 21:48:23.376590080,1.12998828125,0.33037792968749996,10.1268017578125,-0.0681769239060285,-0.0660463950339651,0.07776430383031376,1.2147260996515485,354.10342490072094,108.22377017877464
2026-09-21 21:48:23.376590080,1.062955078125,0.28010302734375,10.196229003906248,-0.07989483270237714,-0.021305288720633905,0.08735168375459901,1.1667930675402134,354.08340252145973,108.27141367078247
2026-09-21 21:48:23.392308736,0.9217065429687499,0.181947265625,10.18665283203125,-0.07563377495825037,-0.0031957933080950856,0.10652644360316953,1.1162584722969275,354.0800808583794,108.33045710420963
2026-09-21 21:48:23.407920896,0.9336767578124999,0.15800683593749998,10.306354980468749,-0.05326322180158476,0.0,0.11398329465539139,1.0749139114124744,354.08143163521623,108.39549334566303
2026-09-21 21:48:23.407920896,0.9025541992187499,0.17715917968749997,10.196229003906248,-0.03621899082507764,0.004261057744126781,0.10333065029507445,1.0444981908100743,354.084981143178,108.45720479624106
2026-09-21 21:48:23.423569152,0.8762197265624999,0.17955322265624998,10.167500488281249,-0.03728425526110934,-0.007456851052221867,0.07456851052221868,1.0181289222729504,354.08448955980975,108.50530864741172
2026-09-21 21:48:23.439104512,0.8762197265624999,0.1963115234375,10.1938349609375,-0.04154531300523612,-0.03302319751698255,0.05113269292952137,0.9904065187209474,354.07239873402983,108.53751590416977
2026-09-21 21:48:23.456784640,1.00789208984375,0.181947265625,10.14356005859375,-0.03728425526110934,-0.06178533728983833,0.04793689962142629,0.9660580409220927,354.0428140707778,108.56482193541518
2026-09-21 21:48:23.456784640,1.16589892578125,0.18673535156249998,10.090891113281248,-0.03195793308095086,-0.06711165946999681,0.0458063707493629,0.9440164009793124,354.00365244595935,108.59142084242484
2026-09-21 21:48:23.470893568,1.09886572265625,0.1963115234375,10.0980732421875,-0.02769687533682408,-0.04048004856920442,0.04154531300523612,0.9251391321855703,353.9750384939988,108.61575004052166
2026-09-21 21:48:23.475091200,1.16589892578125,0.1484306640625,10.040616210937499,-0.035153726389045944,-0.030892668644919165,0.01810949541253882,0.9050462708846433,353.9570829731234,108.63043161590288
2026-09-21 21:48:23.488260608,1.2065976562499998,0.19391748046875,10.10525537109375,-0.03728425526110934,-0.007456851052221867,-0.007456851052221867,0.8836026970878632,353.9476382965997,108.62808947668121
2026-09-21 21:48:23.488260608,1.2065976562499998,0.15561279296875,10.057374511718749,-0.03728425526110934,0.01384843766841204,-0.01384843766841204,0.8624134560477977,353.9523629709094,108.62075042594847
2026-09-21 21:48:23.518703872,1.0773193359375,0.16518896484374998,10.198623046875,-0.03728425526110934,0.04261057744126781,-0.021305288720633905,0.8409026614338018,353.97269905172345,108.60969606368971
2026-09-21 21:48:23.518703872,0.9312827148437499,0.15561279296875,10.301566894531248,-0.035153726389045944,0.05326322180158476,-0.023435817592697295,0.8208507946869807,354.0044354831604,108.59629009586186
2026-09-21 21:48:23.550320384,0.8546733398437499,0.17476513671875,10.25368603515625,-0.024501082028728992,0.04048004856920442,-0.02663161090079238,0.8062740120424879,354.033069886858,108.5822006971881
2026-09-21 21:48:23.566042624,0.9432529296875,0.28010302734375,10.251291992187499,-0.024501082028728992,0.035153726389045944,-0.0458063707493629,0.7951801462000705,354.05713032428287,108.5581541560425
2026-09-21 21:48:23.585409280,1.0102861328125,0.33037792968749996,10.25368603515625,-0.03302319751698255,0.039414784133172724,-0.044741106313331204,0.7811040399607885,354.08159573835155,108.53092380884954
2026-09-21 21:48:23.585409280,1.05098486328125,0.201099609375,10.18186474609375,-0.04687163518539459,0.05113269292952137,-0.02769687533682408,0.7599631844093889,354.1099431566349,108.51325666695269
2026-09-21 21:48:23.585409280,0.99352783203125,0.05745703125,10.07652685546875,-0.05539375067364816,0.07350324608618697,-0.03302319751698255,0.7304944258009208,354.1505295839429,108.4962048198356
2026-09-21 21:48:23.585409280,0.8714316406249999,0.10294384765624999,10.18665283203125,-0.04793689962142629,0.07882956826634545,-0.044741106313331204,0.7024879564563759,354.1981062881458,108.47166521628323
2026-09-21 21:48:23.597413120,0.78285205078125,0.00718212890625,10.1938349609375,-0.03621899082507764,0.0660463950339651,-0.029827404208887468,0.6815336593579177,354.24102136661446,108.45222424017577
2026-09-21 21:48:23.597413120,0.55781201171875,-0.021546386718749998,10.22016943359375,-0.03621899082507764,0.05326322180158476,-0.010652644360316953,0.6595033495536384,354.2782082093529,108.44317785314253
2026-09-21 21:48:23.604269056,0.6559677734374999,-0.05027490234375,10.222563476562499,-0.02876213977285577,0.014913702104443734,-0.009587379924285258,0.6402849473258609,354.29951831020685,108.43922985564073
2026-09-21 21:48:23.625480960,0.7996103515624999,0.13885449218749998,10.1651064453125,-0.01384843766841204,-0.01597896654047543,-0.009587379924285258,0.628737338696421,354.2984658933035,108.43191347997363
2026-09-21 21:48:23.629485824,0.8546733398437499,0.20588769531249998,10.18186474609375,-0.0031957933080950856,-0.03728425526110934,0.012783173232380343,0.6256300200388311,354.28205317161115,108.43624009106209
2026-09-21 21:48:23.645117696,0.9264946289062499,0.22743408203124998,10.10525537109375,-0.007456851052221867,-0.030892668644919165,0.022370553156665602,0.6211338258946009,354.2646530748062,108.44877941091471
2026-09-21 21:48:23.645117696,0.9528291015624999,0.26573876953125,10.11483154296875,-0.02024002428460221,-0.023435817592697295,0.024501082028728992,0.61158394325861,354.25195603860925,108.46285029175371
2026-09-21 21:48:23.661835520,1.0270444335937499,0.2537685546875,10.16989453125,-0.03195793308095086,-0.025566346464760685,0.029827404208887468,0.5939332068586393,354.2376568580891,108.47872253649614
2026-09-21 21:48:23.661835520,1.0677431640625,0.24658642578124998,10.066950683593749,-0.035153726389045944,-0.005326322180158476,0.04261057744126781,0.57404357603541,354.2306085725649,108.501764703489
2026-09-21 21:48:23.676844800,0.9600112304687499,0.19152343749999998,10.066950683593749,-0.043675841877299504,0.021305288720633905,0.0458063707493629,0.5483572607474426,354.23928721683706,108.52803072375482
2026-09-21 21:48:23.692595200,0.83552099609375,0.18434130859374998,10.066950683593749,-0.044741106313331204,0.02024002428460221,0.05326322180158476,0.5201210570946371,354.2537474818151,108.55838261650516
2026-09-21 21:48:23.693545728,0.7445473632812499,0.15321875,10.162712402343749,-0.043675841877299504,0.004261057744126781,0.05326322180158476,0.49141893694205313,354.2618068829392,108.58989172787824
2026-09-21 21:48:23.710181376,0.7206069335937499,0.1149140625,10.13158984375,-0.04261057744126781,-0.008522115488253563,0.039414784133172724,0.4653737536243385,354.26219977386484,108.61553639613645
2026-09-21 21:48:23.710181376,0.77806396484375,0.076609375,10.13158984375,-0.039414784133172724,-0.017044230976507126,0.012783173232380343,0.44009753381804495,354.2572912462638,108.62767166584177
2026-09-21 21:48:23.726617088,0.9288886718749999,0.11012597656249999,10.11961962890625,-0.03728425526110934,-0.02769687533682408,-0.017044230976507126,0.4199139719990802,354.24499677206035,108.62137063799668
2026-09-21 21:48:23.756484608,0.9145244140625,0.16997705078124997,10.083708984374999,-0.025566346464760685,-0.019174759848570515,-0.024501082028728992,0.40636428866118707,354.23402119946115,108.60705177673002
2026-09-21 21:48:23.756484608,0.88818994140625,0.13167236328124998,10.18665283203125,-0.03195793308095086,-0.01597896654047543,-0.019174759848570515,0.39081200548818595,354.22670888442036,108.59460020029535
2026-09-21 21:48:23.756484608,0.9360708007812499,0.00239404296875,10.21059326171875,-0.03408846195301425,-0.021305288720633905,-0.012783173232380343,0.37192978667760546,354.21706868007414,108.5852277532838
2026-09-21 21:48:23.772124672,0.9719814453125,-0.01915234375,10.133983886718749,-0.02876213977285577,-0.029827404208887468,-0.0010652644360316954,0.3536879521113025,354.20282831264495,108.58208782597521
2026-09-21 21:48:23.772124672,1.0198623046875,0.055062988281249996,10.09328515625,-0.014913702104443734,-0.030892668644919165,0.01597896654047543,0.34245263659127245,354.1860430120004,108.58874806632512
2026-09-21 21:48:23.788958976,0.96958740234375,0.021546386718749998,10.124407714843748,-0.01597896654047543,-0.02769687533682408,0.03302319751698255,0.33151912139923223,354.16968002315235,108.60579980746951
2026-09-21 21:48:23.788958976,0.9288886718749999,0.0,10.107649414062498,-0.017044230976507126,-0.02769687533682408,0.04261057744126781,0.3185167871278112,354.155131806525,108.62996377283834
2026-09-21 21:48:23.804846080,0.9791635742187499,0.01675830078125,10.13158984375,-0.01384843766841204,-0.02663161090079238,0.03834951969714103,0.3068653416433793,354.14103230559544,108.65384362697118
2026-09-21 21:48:23.821207040,1.0007099609374999,0.0622451171875,10.162712402343749,-0.009587379924285258,-0.019174759848570515,0.03621899082507764,0.2978057737933897,354.13029688442356,108.67493716685698
2026-09-21 21:48:23.821207040,0.9911337890624999,0.11730810546874999,10.222563476562499,-0.0021305288720633907,-0.011717908796348648,0.039414784133172724,0.29371614593315964,354.1235609234943,108.69692470843432
2026-09-21 21:48:23.835345920,0.9911337890624999,0.1149140625,10.268050292968748,-0.004261057744126781,-0.004261057744126781,0.035153726389045944,0.2907606957545951,354.12029590855843,108.718572495346
2026-09-21 21:48:23.851135488,0.9528291015624999,0.16518896484374998,10.167500488281249,-0.005326322180158476,0.004261057744126781,0.02876213977285577,0.2864109440648699,354.12396042496755,108.73626315978179
2026-09-21 21:48:23.851135488,0.8283388671874999,0.13406640625,10.239321777343749,-0.011717908796348648,-0.0031957933080950856,0.023435817592697295,0.28043129264118705,354.12558010358396,108.75051928510743
2026-09-21 21:48:23.882588416,0.833126953125,0.01675830078125,10.256080078124999,-0.022370553156665602,-0.024501082028728992,0.01597896654047543,0.2684213745269975,354.1179547012912,108.76110524557559
2026-09-21 21:48:23.882588416,0.9719814453125,0.00718212890625,10.1363779296875,-0.02024002428460221,-0.03621899082507764,-0.004261057744126781,0.25565024123126806,354.10099435646316,108.76134744325199
2026-09-21 21:48:23.916719104,1.1252001953125,0.06463916015625,10.11004345703125,-0.01384843766841204,-0.03621899082507764,-0.017044230976507126,0.2469853896158243,354.0812809495505,108.75237166151676
2026-09-21 21:48:23.930071296,1.1898393554687499,0.07900341796874999,10.09328515625,-0.01810949541253882,-0.02024002428460221,-0.011717908796348648,0.2385867265754557,354.0661414708088,108.74363900873045
2026-09-21 21:48:23.930071296,1.09886572265625,-0.12209619140624998,10.08131494140625,-0.02024002428460221,0.0,0.012783173232380343,0.2261157809117643,354.0628117989918,108.74757187441512
2026-09-21 21:48:23.945715712,1.082107421875,-0.14364257812499998,10.050192382812499,-0.007456851052221867,0.010652644360316953,0.008522115488253563,0.21539698794030676,354.068627697257,108.75513622508757
2026-09-21 21:48:23.945715712,0.995921875,-0.0813974609375,10.102861328125,0.012783173232380343,0.009587379924285258,0.008522115488253563,0.21820948316987795,354.0752369031444,108.75898581111532
2026-09-21 21:48:23.961343488,0.80679248046875,-0.09336767578124999,10.18665283203125,0.014913702104443734,-0.0031957933080950856,0.01810949541253882,0.22553491811849805,354.07647849985335,108.7685842437169
2026-09-21 21:48:23.961343488,0.8690375976562499,0.026334472656249996,10.1651064453125,0.01384843766841204,-0.03302319751698255,0.009587379924285258,0.23287868533870235,354.0643319882416,108.77626855406824
2026-09-21 21:48:23.961343488,0.9743754882812499,0.0909736328125,10.129195800781249,0.017044230976507126,-0.05219795736555307,0.01384843766841204,0.24270005684794388,354.0383489572826,108.78285727804345
2026-09-21 21:48:23.961343488,1.0174682617187498,0.10294384765624999,10.133983886718749,0.019174759848570515,-0.06072007285380663,0.02769687533682408,0.25375574952768265,354.0044247889071,108.79730077117597
2026-09-21 21:48:23.992662016,1.09886572265625,0.11970214843749999,10.129195800781249,0.02024002428460221,-0.05113269292952137,0.02663161090079238,0.26499296200266204,353.973793607748,108.81392302013836
2026-09-21 21:48:23.992662016,1.10365380859375,0.20349365234374997,10.1651064453125,0.008522115488253563,-0.039414784133172724,0.009587379924285258,0.27266609222540206,353.94932289857013,108.8222383754859
2026-09-21 21:48:23.995156224,1.0342265625,0.16040087890625,10.1651064453125,-0.0021305288720633907,-0.02769687533682408,0.009587379924285258,0.27394339335067475,353.9317822024185,108.82684508267596
2026-09-21 21:48:24.010175744,1.0318325195312499,0.067033203125,10.155530273437499,-0.009587379924285258,-0.02024002428460221,-0.0010652644360316954,0.2693263276347919,353.9204245336176,108.82942683448151
2026-09-21 21:48:24.010949376,1.0581669921874999,0.09576171874999999,10.196229003906248,-0.008522115488253563,-0.01597896654047543,-0.023435817592697295,0.2657796454629471,353.91229381088476,108.8182560151695
2026-09-21 21:48:24.024563200,1.01507421875,-0.01675830078125,10.162712402343749,-0.009587379924285258,-0.0021305288720633907,-0.02769687533682408,0.26108633202509707,353.90931098775735,108.80285484136536
2026-09-21 21:48:24.041953536,0.9360708007812499,-0.026334472656249996,10.172288574218749,-0.0021305288720633907,0.0021305288720633907,-0.044741106313331204,0.260517191168573,353.914259361281,108.7790031901169
2026-09-21 21:48:24.042729216,0.967193359375,0.13646044921875,10.198623046875,0.01597896654047543,-0.04048004856920442,-0.04048004856920442,0.2691129653349158,353.89863422565213,108.75374320121551
2026-09-21 21:48:24.056241152,0.9025541992187499,0.25616259765625,10.2417158203125,0.025566346464760685,-0.029827404208887468,-0.039414784133172724,0.28963681199567504,353.8796903380041,108.73042324802971
2026-09-21 21:48:24.070842112,0.9073422851562499,0.12688427734375,10.160318359375,-0.017044230976507126,-0.03834951969714103,-0.04793689962142629,0.2903271085784881,353.862978178034,108.70430974567003
2026-09-21 21:48:24.072346368,1.1108359374999999,0.059851074218749994,10.095679199218749,-0.01597896654047543,-0.0660463950339651,-0.0692421883420602,0.2835253361636261,353.8310881722552,108.66779369381285
2026-09-21 21:48:24.088084224,1.2377202148437498,0.12688427734375,10.019069824218748,-0.014913702104443734,-0.054328486237616457,-0.08948221262666241,0.28332530051877375,353.7969011356746,108.61750445026574
2026-09-21 21:48:24.103730688,1.2209619140624999,0.05745703125,10.112437499999999,-0.029827404208887468,-0.05326322180158476,-0.07882956826634545,0.27008471717537574,353.7665229055408,108.56996477359569
2026-09-21 21:48:24.119236608,1.25208447265625,0.0813974609375,10.050192382812499,-0.010652644360316953,-0.023435817592697295,-0.08948221262666241,0.26805629227756483,353.7460577398454,108.52039214757745
2026-09-21 21:48:24.122990080,1.1850512695312498,0.12688427734375,10.150742187499999,-0.030892668644919165,0.012783173232380343,-0.09800432811491597,0.2591612864358401,353.7496314543667,108.46414121839334
2026-09-21 21:48:24.124792320,1.1491406249999998,-0.026334472656249996,10.057374511718749,-0.04261057744126781,0.03728425526110934,-0.09906959255094766,0.24276685806201906,353.7673208525702,108.40763013625212
2026-09-21 21:48:24.135302400,0.9145244140625,-0.023940429687499997,10.246503906249998,-0.03302319751698255,0.044741106313331204,-0.07563377495825037,0.22343799240402654,353.79522378664734,108.35834687588522
2026-09-21 21:48:24.151947008,0.9312827148437499,-0.0622451171875,10.090891113281248,-0.017044230976507126,0.029827404208887468,-0.05645901510967985,0.2141648875245087,353.8169161214912,108.32503507583691
2026-09-21 21:48:24.151947008,0.9552231445312499,0.14603662109374999,10.172288574218749,-0.0021305288720633907,0.035153726389045944,-0.039414784133172724,0.21167928446457937,353.8395878813352,108.29872958721006
2026-09-21 21:48:24.167034880,0.83073291015625,0.22264599609375,10.172288574218749,0.01597896654047543,0.024501082028728992,-0.006391586616190171,0.22217362330670343,353.858187332885,108.28904698634868
2026-09-21 21:48:24.182721792,0.80679248046875,0.31361962890624995,10.33029541015625,0.024501082028728992,0.024501082028728992,0.006391586616190171,0.23766676360857963,353.87457109392136,108.29188146144348
2026-09-21 21:48:24.182721792,0.75891162109375,0.28728515624999995,10.179470703124998,0.0,0.04687163518539459,-0.01384843766841204,0.2480476647522172,353.90294445526007,108.28761963614816
2026-09-21 21:48:24.199753216,0.7373652343749999,0.17955322265624998,10.217775390624999,-0.04048004856920442,0.03621899082507764,-0.024501082028728992,0.22965792975333682,353.9320139662256,108.27328848901047
2026-09-21 21:48:24.216040192,0.69666650390625,0.09576171874999999,10.189046874999999,-0.008522115488253563,0.004261057744126781,-0.01597896654047543,0.2214879524681,353.94445706023174,108.26270572153201
2026-09-21 21:48:24.216040192,0.7421533203124999,0.13646044921875,10.1363779296875,0.0031957933080950856,-0.02769687533682408,-0.011717908796348648,0.22518902089354267,353.93825808627304,108.25518444828613
2026-09-21 21:48:24.230051584,0.9336767578124999,0.16040087890625,10.1651064453125,-0.005326322180158476,-0.07456851052221868,0.005326322180158476,0.2227996725752356,353.9048532814293,108.2542677533431
2026-09-21 21:48:24.262885120,1.0318325195312499,0.162794921875,10.095679199218749,-0.0021305288720633907,-0.07243798165015528,0.017044230976507126,0.22374311029750818,353.86304270623964,108.26340802259124
2026-09-21 21:48:24.262885120,1.1946274414062499,0.09815576171875,10.112437499999999,-0.03302319751698255,-0.05752427954571154,0.023435817592697295,0.2085496195102529,353.82877009613225,108.27567982914283
2026-09-21 21:48:24.277541888,1.31911767578125,0.011970214843749999,10.033434082031249,-0.021305288720633905,-0.03621899082507764,0.03728425526110934,0.1910902739293978,353.80345130362633,108.29515489025106
2026-09-21 21:48:24.293183744,1.25687255859375,-0.021546386718749998,10.052586425781248,-0.01597896654047543,-0.012783173232380343,0.044741106313331204,0.17754380598382036,353.79112754074276,108.31997528103857
2026-09-21 21:48:24.293183744,1.2329321289062498,0.03112255859375,10.083708984374999,0.0,0.009587379924285258,0.043675841877299504,0.17247586172007204,353.79181351711355,108.34608876222907
2026-09-21 21:48:24.293183744,1.11322998046875,0.12688427734375,10.0980732421875,0.008522115488253563,0.021305288720633905,0.043675841877299504,0.17452856035324774,353.80216723601677,108.37154610814785
2026-09-21 21:48:24.299681536,1.1012597656249998,0.12688427734375,10.1938349609375,0.019174759848570515,0.023435817592697295,0.044741106313331204,0.18267055459460385,353.81515235650795,108.3975186497682
2026-09-21 21:48:24.309352192,1.082107421875,0.14364257812499998,10.0693447265625,0.006391586616190171,0.029827404208887468,0.03728425526110934,0.18780626388300323,353.8315195569723,108.42012813255722
2026-09-21 21:48:24.309352192,0.9600112304687499,0.14603662109374999,10.138771972656249,0.006391586616190171,0.03621899082507764,0.029827404208887468,0.19033251683039057,353.85233554040184,108.43815409751288
2026-09-21 21:48:24.325146624,0.9049482421874999,0.09576171874999999,10.179470703124998,0.010652644360316953,0.023435817592697295,0.01810949541253882,0.1966794943553986,353.86997914446164,108.45092502994098
2026-09-21 21:48:24.340704000,1.00789208984375,0.11252001953124999,10.14356005859375,-0.006391586616190171,0.01810949541253882,-0.021305288720633905,0.19711333663306915,353.8830961195,108.4453253569781
2026-09-21 21:48:24.340704000,0.9528291015624999,0.1484306640625,10.11961962890625,-0.02024002428460221,0.030892668644919165,-0.05219795736555307,0.18937967922166418,353.90200685078463,108.4176321514263
2026-09-21 21:48:24.359439360,0.8235507812499999,0.11252001953124999,10.205805175781249,-0.01384843766841204,0.014913702104443734,-0.049002164057457984,0.18439207194707274,353.9162637050266,108.38833749970496
2026-09-21 21:48:24.359439360,0.8187626953124999,0.08618554687499999,10.2034111328125,-0.024501082028728992,-0.0010652644360316954,-0.05006742849348968,0.17565440269298616,353.92126133397704,108.35905094096647
2026-09-21 21:48:24.404769280,0.91213037109375,0.055062988281249996,10.2034111328125,-0.022370553156665602,-0.021305288720633905,-0.0458063707493629,0.16493943795420993,353.9150943974721,108.33099321579957
2026-09-21 21:48:24.404769280,1.01507421875,0.14124853515625,10.14356005859375,-0.006391586616190171,-0.029827404208887468,-0.025566346464760685,0.16156796050735286,353.90091638935536,108.31269074555914
2026-09-21 21:48:24.408487424,1.15632275390625,0.18673535156249998,10.212987304687498,-0.007456851052221867,-0.023435817592697295,-0.01810949541253882,0.16039358966679915,353.8864986401857,108.30112522988765
2026-09-21 21:48:24.408487424,1.19941552734375,0.3495302734375,10.184258789062499,-0.010652644360316953,0.01384843766841204,-0.012783173232380343,0.15754689202053948,353.8884627187812,108.29165187300536
2026-09-21 21:48:24.419640320,0.8546733398437499,0.229828125,10.2704443359375,-0.022370553156665602,0.023435817592697295,0.019174759848570515,0.14812679545995022,353.9038003936503,108.29804004568804
2026-09-21 21:48:24.419640320,0.7469414062499999,0.00718212890625,10.172288574218749,-0.03408846195301425,0.007456851052221867,0.008522115488253563,0.13005082082429104,353.9144613002816,108.30646594715161
2026-09-21 21:48:24.435502592,0.7206069335937499,0.023940429687499997,10.198623046875,-0.03408846195301425,-0.008522115488253563,-0.01810949541253882,0.11112413801758148,353.9169294974818,108.2987478949542
2026-09-21 21:48:24.435502592,0.9312827148437499,0.0,10.07173876953125,-0.024501082028728992,-0.05539375067364816,-0.0458063707493629,0.09837255526822995,353.8972160478163,108.27655851597702
2026-09-21 21:48:24.450923776,1.1156240234375,0.059851074218749994,10.01667578125,-0.023435817592697295,-0.0660463950339651,-0.08415589044650393,0.08943637928441717,353.858990751252,108.23225629100529
2026-09-21 21:48:24.467813376,1.1730810546875,0.009576171875,10.0310400390625,-0.035153726389045944,-0.030892668644919165,-0.08202536157444054,0.07771548412868279,353.8367643835311,108.18334052639743
2026-09-21 21:48:24.482491648,1.1730810546875,-0.0383046875,9.96640087890625,-0.04793689962142629,-0.019174759848570515,-0.09587379924285258,0.05641915171381849,353.82358002478225,108.13051027093753
2026-09-21 21:48:24.482491648,1.06534912109375,-0.047880859374999994,10.124407714843748,-0.039414784133172724,-0.014913702104443734,-0.09587379924285258,0.03790389431313664,353.81500524356903,108.07340381494416
2026-09-21 21:48:24.498237440,1.15632275390625,-0.124490234375,10.201017089843749,-0.030892668644919165,-0.029827404208887468,-0.08096009713840883,0.02437231289012027,353.8008234569719,108.02403474394539
2026-09-21 21:48:24.498237440,1.2736308593749999,-0.043092773437499995,10.0597685546875,-0.030892668644919165,-0.017044230976507126,-0.05645901510967985,0.009140650723339788,353.7877319148793,107.98698917375552
2026-09-21 21:48:24.513761536,1.1754750976562498,-0.021546386718749998,10.078920898437499,-0.008522115488253563,-0.0021305288720633907,-0.025566346464760685,0.0007895680528891064,353.78307052680475,107.96765770058038
2026-09-21 21:48:24.529387520,0.9863457031249999,0.07421533203125,10.24889794921875,0.017044230976507126,0.007456851052221867,-0.009587379924285258,0.00815611133813611,353.78651519288945,107.95993751023673
2026-09-21 21:48:24.529387520,0.9312827148437499,0.07900341796874999,10.246503906249998,0.01810949541253882,0.01597896654047543,-0.011717908796348648,0.022104016730199346,353.7973017476711,107.9542917519249
2026-09-21 21:48:24.546386944,1.00310400390625,0.05027490234375,10.2321396484375,0.005326322180158476,0.005326322180158476,-0.03195793308095086,0.029795949338989998,353.8049160219076,107.93912558589695
2026-09-21 21:48:24.546386944,0.9288886718749999,-0.026334472656249996,10.25847412109375,0.005326322180158476,0.006391586616190171,-0.043675841877299504,0.03575864949379142,353.8093784541922,107.9135665355141
2026-09-21 21:48:24.560932608,0.91691845703125,-0.09336767578124999,10.222563476562499,0.0010652644360316954,0.007456851052221867,-0.04793689962142629,0.039440209718321496,353.8165186209354,107.88721352867316
2026-09-21 21:48:24.578956288,0.8857958984375,-0.0622451171875,10.263262207031248,0.010652644360316953,-0.004261057744126781,-0.03195793308095086,0.04637678223753473,353.8183421512905,107.86457405514042
2026-09-21 21:48:24.578956288,0.9360708007812499,0.0,10.189046874999999,0.022370553156665602,-0.03408846195301425,0.0010652644360316954,0.05834267672221554,353.805519055145,107.86121676777854
2026-09-21 21:48:24.593977344,0.9001601562499999,0.08857958984374999,10.124407714843748,0.022370553156665602,-0.039414784133172724,0.02663161090079238,0.07142264567771928,353.7843689106016,107.8734307560794
2026-09-21 21:48:24.593977344,0.8139746093749999,0.07900341796874999,10.160318359375,0.017044230976507126,-0.02663161090079238,0.03834951969714103,0.08191340991467753,353.77018585569243,107.89415941746645
2026-09-21 21:48:24.626175744,0.7158188476562499,0.08618554687499999,10.196229003906248,0.0,-0.039414784133172724,0.04793689962142629,0.08340202036030113,353.7534424964538,107.92072728178289
2026-09-21 21:48:24.626175744,0.8834018554687499,-0.009576171875,10.162712402343749,-0.0010652644360316954,-0.05645901510967985,0.03834951969714103,0.07971009027697964,353.72692238235646,107.94546066958283
2026-09-21 21:48:24.656202752,0.9767695312499999,-0.023940429687499997,10.1938349609375,0.005326322180158476,-0.054328486237616457,0.014913702104443734,0.08135557696168273,353.6973079150566,107.95706474090214
2026-09-21 21:48:24.656202752,1.20420361328125,0.06942724609374999,10.14356005859375,0.009587379924285258,-0.039414784133172724,-0.014913702104443734,0.08773844412778348,353.6729690922123,107.95238161116744
2026-09-21 21:48:24.671760384,1.1323823242187498,0.09815576171875,10.268050292968748,0.010652644360316953,-0.010652644360316953,-0.009587379924285258,0.09625243514545308,353.6625213778029,107.94455278446333
2026-09-21 21:48:24.671760384,1.1275942382812498,0.04548681640625,10.25368603515625,0.011717908796348648,-0.007456851052221867,0.0,0.10530829457928842,353.6582904715873,107.94378286320595
2026-09-21 21:48:24.671760384,1.1802631835937498,0.17715917968749997,10.201017089843749,0.02024002428460221,0.0021305288720633907,0.0010652644360316954,0.11572787068925536,353.65870359197856,107.94458958134841
2026-09-21 21:48:24.687599104,1.1946274414062499,0.22264599609375,10.1938349609375,0.022370553156665602,0.010652644360316953,0.011717908796348648,0.13190366954326327,353.6632983122804,107.94952279294264
2026-09-21 21:48:24.687599104,1.16111083984375,0.28489111328125,10.095679199218749,0.0,0.024501082028728992,0.012783173232380343,0.13631622573354255,353.67444041898335,107.9569181987649
2026-09-21 21:48:24.703383296,1.1682929687499999,0.13167236328124998,10.1746826171875,-0.02024002428460221,0.039414784133172724,0.017044230976507126,0.12825844827861718,353.69775641333666,107.96645917146628
2026-09-21 21:48:24.719806976,1.0222563476562498,0.076609375,10.162712402343749,-0.03728425526110934,0.043675841877299504,0.025566346464760685,0.10735795259938308,353.72104945536927,107.9792655217014
2026-09-21 21:48:24.719806976,0.7134248046874999,-0.11730810546874999,10.205805175781249,-0.022370553156665602,0.05006742849348968,0.05539375067364816,0.08782199911991953,353.7544471575367,108.00779804782458
2026-09-21 21:48:24.736034560,0.8953720703124999,-0.043092773437499995,10.09328515625,-0.010652644360316953,-0.004261057744126781,-0.005326322180158476,0.07751471563937258,353.7647355416334,108.0177740370027
2026-09-21 21:48:24.750547200,0.8762197265624999,0.28967919921874996,10.2034111328125,-0.017044230976507126,-0.012783173232380343,-0.02769687533682408,0.071545749912054,353.7617011555874,107.99952261472433
2026-09-21 21:48:24.762524416,0.8427031249999999,0.11252001953124999,10.13158984375,-0.05113269292952137,-0.04687163518539459,0.006391586616190171,0.049330289612347616,353.7423508979496,107.99855541402808
2026-09-21 21:48:24.766554624,0.8546733398437499,0.0,10.155530273437499,-0.04793689962142629,-0.06285060172587002,0.021305288720633905,0.019354909592637592,353.71234823204276,108.01071194899308
2026-09-21 21:48:24.782191616,0.9025541992187499,0.0143642578125,10.107649414062498,-0.035153726389045944,-0.08202536157444054,0.0,359.9963930649948,353.67040318947744,108.01435592780602
2026-09-21 21:48:24.782191616,0.9025541992187499,0.2681328125,10.1938349609375,-0.04048004856920442,-0.08309062601047223,-0.01810949541253882,359.97637250660193,353.62606143613226,108.00498617242359
2026-09-21 21:48:24.813955584,1.3047534179687499,0.14603662109374999,10.184258789062499,-0.06498113059793341,-0.10333065029507445,-0.008522115488253563,359.9480452169595,353.5711327505566,107.99915153851077
2026-09-21 21:48:24.813955584,1.292783203125,0.11730810546874999,10.04779833984375,-0.10120012142301105,-0.05645901510967985,-0.004261057744126781,359.8946359357592,353.5280405617791,107.99468888698384
2026-09-21 21:48:24.813955584,1.0054980468749999,0.00718212890625,10.268050292968748,-0.07137271721412358,-0.017044230976507126,0.043675841877299504,359.84706732095685,353.5167725822204,108.01233327097042
2026-09-21 21:48:24.830573824,1.0485908203124998,-0.06463916015625,10.22016943359375,-0.05113269292952137,-0.05539375067364816,0.0458063707493629,359.8130339108857,353.49214782465464,108.04185193546797
2026-09-21 21:48:24.830573824,1.2281440429687498,0.0909736328125,10.162712402343749,-0.05858954398174324,-0.04261057744126781,0.02024002428460221,359.77884533523763,353.46680369673317,108.05694414845793
2026-09-21 21:48:24.845739008,1.19941552734375,0.22264599609375,10.11961962890625,-0.05219795736555307,-0.04261057744126781,0.02876213977285577,359.7479089837311,353.44184688102337,108.07120533002762
2026-09-21 21:48:24.861506816,1.1108359374999999,0.27052685546875,10.172288574218749,-0.03621899082507764,-0.022370553156665602,0.04261057744126781,359.72515898538256,353.4264499104293,108.0945377922906
2026-09-21 21:48:24.861506816,0.99831591796875,0.27770898437499997,10.21538134765625,-0.05006742849348968,-0.012783173232380343,0.03834951969714103,359.700325774064,353.42034147240724,108.11715389874514
2026-09-21 21:48:24.877082624,0.9719814453125,0.28967919921874996,10.222563476562499,-0.08415589044650393,-0.030892668644919165,0.030892668644919165,359.65814782991237,353.40883028639774,108.1360960660147
2026-09-21 21:48:24.877082624,0.9432529296875,0.2154638671875,10.150742187499999,-0.10013485698697935,-0.0458063707493629,0.02876213977285577,359.60410013032566,353.38656022474123,108.15329400815115
2026-09-21 21:48:24.892766208,1.09407763671875,0.076609375,10.236927734375,-0.10546117916713783,-0.054328486237616457,0.02876213977285577,359.54557535233,353.3599589800239,108.17064192807328
2026-09-21 21:48:24.908389888,1.1898393554687499,0.09815576171875,10.11004345703125,-0.11611382352745478,-0.05752427954571154,0.019174759848570515,359.47974347536234,353.3278532045836,108.18387585677127
2026-09-21 21:48:24.923881472,1.1060478515624999,0.11252001953124999,9.9927353515625,-0.11078750134729631,-0.03621899082507764,0.03302319751698255,359.4159871622445,353.3037905523064,108.19979773414393
2026-09-21 21:48:24.923881472,1.0773193359375,0.028728515625,10.0980732421875,-0.09906959255094766,-0.021305288720633905,0.04261057744126781,359.35525757936364,353.29186425354277,108.2241172289964
2026-09-21 21:48:24.939665920,0.9217065429687499,0.047880859374999994,10.00949365234375,-0.11717908796348649,-0.009587379924285258,0.05219795736555307,359.28995172608785,353.2869580469785,108.25195771343598
2026-09-21 21:48:24.939665920,0.9217065429687499,0.08618554687499999,10.083708984374999,-0.1129180302193597,-0.025566346464760685,0.043675841877299504,359.2215007844076,353.27953741085577,108.28036431590597
2026-09-21 21:48:24.955130624,1.08928955078125,0.1484306640625,10.155530273437499,-0.10226538585904274,-0.054328486237616457,0.035153726389045944,359.1636079280779,353.2558957829124,108.30160614437558
2026-09-21 21:48:24.970818048,1.0270444335937499,0.2681328125,10.11483154296875,-0.136353847812057,-0.05858954398174324,0.054328486237616457,359.0907584752727,353.2240242274507,108.32961200276365
2026-09-21 21:48:24.986801152,1.0677431640625,0.31840771484374997,10.1651064453125,-0.14274543442824716,-0.049002164057457984,0.08096009713840883,359.0093944589002,353.1987311965538,108.37308678673148
2026-09-21 21:48:24.986801152,1.00789208984375,0.34474218749999996,10.342265625,-0.1555286076606275,-0.0660463950339651,0.09267800593475749,358.9212353928229,353.168295129051,108.42519744168199
2026-09-21 21:48:25.024702720,0.9624052734374999,0.29925537109375,10.370994140625,-0.18535601186951497,-0.08735168375459901,0.10972223691126462,358.82039031603597,353.1255070342758,108.48652254666298
2026-09-21 21:48:25.024702720,1.1108359374999999,0.19391748046875,10.239321777343749,-0.23222764705490956,-0.10013485698697935,0.11078750134729631,358.69118774545876,353.07466287635515,108.55185851893522
2026-09-21 21:48:25.050084096,1.3478461914062498,0.1675830078125,10.18665283203125,-0.25246767133951176,-0.10865697247523291,0.10972223691126462,358.5446986427998,353.0149263974974,108.61637207251542
2026-09-21 21:48:25.054231808,1.3526342773437499,0.124490234375,10.0693447265625,-0.2641855801358604,-0.07350324608618697,0.12783173232380343,358.3912490203214,352.96731306945753,108.68807124511392
2026-09-21 21:48:25.054231808,1.2951772460937498,0.067033203125,10.107649414062498,-0.25246767133951176,-0.03621899082507764,0.15020228548046904,358.2364071741577,352.94265539560274,108.77276977800392
2026-09-21 21:48:25.054231808,1.1108359374999999,0.01675830078125,10.145954101562499,-0.25885925795570197,-0.02024002428460221,0.1629854587128494,358.0824112495061,352.933693328744,108.8651214464826
2026-09-21 21:48:25.063459328,0.9504350585937499,-0.011970214843749999,10.284808593749998,-0.2705771667520506,-0.03408846195301425,0.16511598758491278,357.92186119653087,352.92382289538796,108.96102701576105
2026-09-21 21:48:25.065966592,0.9288886718749999,0.0143642578125,10.20819921875,-0.2908171910366528,-0.07137271721412358,0.15446334322459582,357.7506390597041,352.8945955023299,109.05313683212657
2026-09-21 21:48:25.082116352,0.9001601562499999,-0.1005498046875,10.251291992187499,-0.31212247975728674,-0.10120012142301105,0.14913702104443735,357.56746403825935,352.84946331331037,109.1410638458786
2026-09-21 21:48:25.083639296,1.0342265625,-0.13646044921875,10.157924316406248,-0.3227751241176037,-0.1384843766841204,0.14274543442824716,357.3761713808523,352.78309974034806,109.22833985934244
2026-09-21 21:48:25.099258624,1.2401142578125,-0.07421533203125,10.1268017578125,-0.335558297349984,-0.14381069886427886,0.10652644360316953,357.18017015894924,352.705681355009,109.2997028824846
2026-09-21 21:48:25.099258624,1.3334819335937498,-0.04069873046875,10.17707666015625,-0.3611246438147447,-0.1129180302193597,0.0916127414987258,356.9743559208283,352.63924305161464,109.35632787930587
2026-09-21 21:48:25.114298880,1.27123681640625,-0.16518896484374998,10.066950683593749,-0.3856257258434737,-0.08309062601047223,0.10120012142301105,356.75441464269943,352.59150167597795,109.4168067232453
2026-09-21 21:48:25.131277312,0.99352783203125,-0.25616259765625,10.078920898437499,-0.3792341392272835,-0.07350324608618697,0.12144014570761326,356.53083237454723,352.5543261948737,109.48441432264559
2026-09-21 21:48:25.136297216,1.0845014648437499,-0.42613964843749996,10.002311523437498,-0.3866909902795054,-0.10226538585904274,0.1555286076606275,356.30335509570403,352.51041144501636,109.57389259790729
2026-09-21 21:48:25.148188416,1.1012597656249998,-0.31361962890624995,9.9975234375,-0.3877562547155371,-0.09906959255094766,0.14913702104443735,356.0712927292711,352.46039291375837,109.66341083179942
2026-09-21 21:48:25.148188416,1.1252001953125,-0.296861328125,10.090891113281248,-0.395213105767759,-0.10226538585904274,0.16724651645697616,355.8377722016604,352.4137725844263,109.76106964972182
2026-09-21 21:48:25.161967104,1.16111083984375,-0.2681328125,10.117225585937499,-0.4207794522325196,-0.10439591473110614,0.1565938720966592,355.59342186775984,352.36263112847075,109.85759105025085
2026-09-21 21:48:25.177627136,1.0868955078125,-0.35671240234374996,10.22016943359375,-0.4484763275693437,-0.11504855909142309,0.16618125202094447,355.33279876593616,352.3107187774066,109.95566476916557
2026-09-21 21:48:25.193251584,1.3119355468749998,-0.50514306640625,10.10525537109375,-0.47084688072600933,-0.14061490555618378,0.15126754991650074,355.05665495975836,352.2427467611035,110.0527725422713
2026-09-21 21:48:25.193251584,1.36699853515625,-0.5769643554687499,10.10525537109375,-0.48682584726648476,-0.14168016999221547,0.15233281435253243,354.7714227733431,352.1705940875014,110.14590198292022
2026-09-21 21:48:25.208851712,1.3837568359374999,-0.6751201171875,10.00949365234375,-0.4953479627547383,-0.1555286076606275,0.17257283863713463,354.47688180289975,352.0938917448451,110.25047738726246
2026-09-21 21:48:25.208851712,1.407697265625,-0.6368154296874999,9.985553222656248,-0.4804342606502946,-0.16511598758491278,0.18429074743348328,354.18625782620046,352.0118922069141,110.3644022590621
2026-09-21 21:48:25.224984576,1.5704921875,-0.48599072265625,9.956824707031249,-0.48576058283045304,-0.16192019427681767,0.17683389638126143,353.8980609873484,351.92995952386116,110.47705771932368
2026-09-21 21:48:25.241948672,1.7261049804687498,-0.31601367187499996,9.968794921874998,-0.4985437560628334,-0.1352885833760253,0.16724651645697616,353.6074205679385,351.857209122209,110.58244732459487
2026-09-21 21:48:25.241948672,1.7189228515625,-0.15561279296875,10.08610302734375,-0.534762746887911,-0.08415589044650393,0.16937704532903955,353.3022458756154,351.8095518874338,110.68392128554474
2026-09-21 21:48:25.256538880,1.618373046875,-0.258556640625,10.13158984375,-0.6040049352299712,-0.03621899082507764,0.21198762277030736,352.96135098077434,351.7939865458562,110.80020701769429
2026-09-21 21:48:25.272212480,1.37657470703125,-0.48838476562499994,10.198623046875,-0.6647250080837779,-0.01810949541253882,0.2748382244961774,352.57656565342745,351.8008714241152,110.94900665816782
2026-09-21 21:48:25.272212480,1.24490234375,-0.8235507812499999,10.0884970703125,-0.6881608256764752,-0.03195793308095086,0.3153182730653818,352.1684662917086,351.8098551214672,111.12686961489094
2026-09-21 21:48:25.287829504,1.2592666015624998,-0.8139746093749999,10.052586425781248,-0.6902913545485385,-0.044741106313331204,0.3408846195301425,351.7499733933151,351.81554071589886,111.3206114518689
2026-09-21 21:48:25.310435072,1.177869140625,-0.67033203125,10.074132812499998,-0.695617676728697,-0.04793689962142629,0.35792885050664963,351.3304599311529,351.82119176861033,111.52686186776437
2026-09-21 21:48:25.310435072,1.09407763671875,-0.7110307617187499,10.157924316406248,-0.7115966432691725,-0.06072007285380663,0.3621899082507764,350.9051003916184,351.8246602201409,111.7384880890431
2026-09-21 21:48:25.319605504,0.7660937499999999,-0.8043984375,10.179470703124998,-0.7659251295067889,-0.07989483270237714,0.37284255261109334,350.4541227287318,351.8228604234559,111.95340494771902
2026-09-21 21:48:25.319605504,0.9863457031249999,-0.9432529296875,9.956824707031249,-0.8500810199532929,-0.12570120345174005,0.3675162304309349,349.9567076303628,351.8019526510367,112.17685981916073
2026-09-21 21:48:25.353937408,1.12998828125,-0.7660937499999999,10.002311523437498,-0.8958873907026558,-0.1629854587128494,0.34834147058236437,349.4268711195256,351.75584328527407,112.39097131578721
2026-09-21 21:48:25.353937408,1.2736308593749999,-0.8810078124999999,9.90415576171875,-0.9310411170917017,-0.17896442525332482,0.3664509659949032,348.879741913877,351.698862437594,112.61429519847178
2026-09-21 21:48:25.383132928,1.1922333984375,-1.1156240234375,9.8586689453125,-1.0077401564859838,-0.17363810307316632,0.395213105767759,348.29037880666374,351.6470633127999,112.85296243596353
2026-09-21 21:48:25.398779392,1.3119355468749998,-1.4436079101562498,9.669539550781248,-1.0844391958802657,-0.1757686319452297,0.39627837020379064,347.65325689884963,351.6010559280421,113.09894005452155
2026-09-21 21:48:25.398779392,1.2496904296875,-1.6854062499999998,9.65038720703125,-1.1238539800134386,-0.18748654074157836,0.3664509659949032,346.9845584576983,351.5459463303515,113.33206400754858
2026-09-21 21:48:25.430033408,1.0222563476562498,-1.9272045898437498,9.590536132812499,-1.1270497733215337,-0.19281286292173686,0.40160469238394914,346.30881916979627,351.49513177075,113.57687304702154
2026-09-21 21:48:25.430033408,1.1060478515624999,-2.16421484375,9.557019531249999,-1.1195929222693117,-0.2439455558512582,0.39414784133172726,345.6304675024828,351.42869992638214,113.83439697190568
2026-09-21 21:48:25.430033408,1.3598164062499998,-2.14745654296875,9.68869189453125,-1.1132013356531216,-0.2695119023160189,0.34940673501839603,344.9610387758147,351.337398792715,114.07470173371473
2026-09-21 21:48:25.430033408,1.41487939453125,-2.12591015625,9.68869189453125,-1.1259845088855018,-0.2663161090079238,0.3419498839661742,344.28943394223944,351.24298359302395,114.30538658953766
2026-09-21 21:48:25.430033408,1.48670068359375,-2.3413740234375,9.636022949218749,-1.1739214085069283,-0.2716424311880823,0.34834147058236437,343.59335949992163,351.1512903300582,114.5422535820814
2026-09-21 21:48:25.445814784,1.560916015625,-2.5520498046875,9.602506347656249,-1.202683548279784,-0.2673813734439555,0.32916671073379383,342.87570638486756,351.0596243537472,114.7725086792655
2026-09-21 21:48:25.445814784,1.4507900390625,-2.6358413085937498,9.552231445312499,-1.2016182838437524,-0.2535329357755435,0.31425300862935013,342.1580269862122,350.9740171324105,114.99141512597757
2026-09-21 21:48:25.461287424,1.3071474609374998,-2.9327026367187496,9.573777832031249,-1.2527509767732736,-0.25566346464760686,0.34301514840220587,341.4169040496989,350.89866954220713,115.22143245357034
2026-09-21 21:48:25.461287424,1.3358759765625,-3.2750507812499996,9.442105468749999,-1.2591425633894637,-0.27803401780427245,0.3398193550941108,340.65709716813217,350.8192032592075,115.46058688092494
2026-09-21 21:48:25.477064704,1.41487939453125,-3.4522099609374997,9.40619482421875,-1.2538162412093052,-0.30679615757712825,0.3163835375014135,339.90012647495377,350.7229682099336,115.69517382052285
2026-09-21 21:48:25.477064704,1.5633100585937498,-3.5407895507812497,9.1117275390625,-1.2016182838437524,-0.31425300862935013,0.3185140663734769,339.1640601437835,350.62037505500865,115.9311476368132
2026-09-21 21:48:25.492531200,1.6423134765624998,-3.3013852539062496,8.886687499999999,-1.1472897976061358,-0.3004045709609381,0.335558297349984,338.4583882834915,350.5264438870377,116.17511831686504
2026-09-21 21:48:25.509504768,1.27602490234375,-2.8608813476562496,8.98963134765625,-1.0961571046766145,-0.297208777652843,0.3866909902795054,337.7834446300276,350.44949180807777,116.43808470147577
2026-09-21 21:48:25.524044032,1.4962768554687498,-3.1697128906249996,9.2457939453125,-1.0865697247523292,-0.3398193550941108,0.4186489233604562,337.1213053479906,350.3708561148814,116.73319437474855
2026-09-21 21:48:25.525633024,1.8051083984374998,-3.2918090820312496,9.06624072265625,-1.1622034997105795,-0.3174488019374452,0.37603834591918844,336.43061834470694,350.2850629038645,117.01522549569873
2026-09-21 21:48:25.540152832,1.8697475585937497,-3.6533095703124996,9.06145263671875,-1.2463593901570835,-0.25033714246744837,0.3792341392272835,335.6872132423457,350.2332801013933,117.2748789827859
2026-09-21 21:48:25.543425024,1.7284990234375,-3.9238364257812495,9.13327392578125,-1.2506204479012102,-0.19707392066586363,0.4026699568199808,334.92732914964296,350.2151627488314,117.53501342025596
2026-09-21 21:48:25.557261568,1.7117407226562498,-4.3547641601562495,8.91781005859375,-1.216531985948196,-0.1810949541253882,0.4314320965928366,334.18497659879654,350.2257828015723,117.80467983114825
2026-09-21 21:48:25.557261568,1.27123681640625,-4.395462890625,8.798107910156249,-1.1973572260996255,-0.16405072314888108,0.46339002967378745,333.4454191613206,350.25568236049895,118.0833229661492
2026-09-21 21:48:25.571954176,0.8977661132812499,-4.457708007812499,8.90583984375,-1.1653992930186747,-0.2024002428460221,0.5326322180158476,332.7216361271273,350.29998266527184,118.40024666388412
2026-09-21 21:48:25.587599360,0.9552231445312499,-4.4289794921875,9.03990625,-1.1132013356531216,-0.2876213977285577,0.5326322180158476,332.01719394418217,350.3169826365251,118.74937273062112
2026-09-21 21:48:25.603507200,1.06056103515625,-4.3236416015625,8.95132666015625,-1.0865697247523292,-0.3387540906580791,0.4878911117025164,331.3409331610302,350.2949543257975,119.09407609370108
2026-09-21 21:48:25.603507200,1.235326171875,-4.53671142578125,8.85077685546875,-1.1355718888097872,-0.3643204371228398,0.4729774095980727,330.6448921442355,350.2541212688177,119.43542084977852
2026-09-21 21:48:25.619284736,1.3837568359374999,-4.826390624999999,8.632918945312499,-1.1515508553502627,-0.37390781704712506,0.4527373853134705,329.9304255514613,350.20496019813453,119.77441418037544
2026-09-21 21:48:25.624683008,1.43403173828125,-4.917364257812499,8.71192236328125,-1.1355718888097872,-0.3589941149426813,0.42504050997664644,329.223874791895,350.15457986898275,120.09626040445845
2026-09-21 21:48:25.636827392,1.4938828124999999,-4.893423828125,8.594614257812498,-1.1089402779089947,-0.3568635860706179,0.4207794522325196,328.5329610909963,350.1060685702291,120.4129393489958
2026-09-21 21:48:25.640029952,1.2305380859375,-4.9724272460937495,8.599402343749999,-1.1100055423450266,-0.3621899082507764,0.4793689962142629,327.84459943126086,350.07540409473347,120.74962976820956
2026-09-21 21:48:25.669751808,1.4436079101562498,-5.2357719726562495,8.50124658203125,-1.129180302193597,-0.3856257258434737,0.510261664859182,327.1401986001069,350.05347715405617,121.11675296112439
2026-09-21 21:48:25.669751808,1.4938828124999999,-5.2094375,8.3264814453125,-1.1185276578332801,-0.3856257258434737,0.48363005395838965,326.43694141985117,350.0252660622685,121.47801687578168
2026-09-21 21:48:25.684772608,1.3909389648437498,-5.24056005859375,8.254660156249999,-1.1174623933972483,-0.39201731245966387,0.49108690501061153,325.7386167518657,349.99997387228467,121.83901566272012
2026-09-21 21:48:25.684772608,1.5178232421875,-5.405749023437499,8.060742675781249,-1.1206581867053433,-0.39947416351188575,0.48682584726648476,325.033708207255,349.97498340924307,122.20600357998184
2026-09-21 21:48:25.699374336,1.5800683593749998,-5.424901367187499,8.0870771484375,-1.1132013356531216,-0.384560461407442,0.4538026497495022,324.33544999656067,349.94859745188575,122.55610828745816
2026-09-21 21:48:25.699374336,1.63513134765625,-5.38420263671875,7.9817392578124995,-1.0993528979847096,-0.3589941149426813,0.43675841877299504,323.6517347631902,349.92907235546414,122.88708652511973
2026-09-21 21:48:25.730643712,1.4483959960937498,-5.530239257812499,8.03680224609375,-1.0929613113685193,-0.346210941710301,0.4463457986972803,322.9696027126373,349.92154585325,123.21352678831637
2026-09-21 21:48:25.747711488,1.4029091796875,-5.757673339843749,7.902735839843749,-1.1174623933972483,-0.34727620614633264,0.4538026497495022,322.2808903143513,349.92560098375145,123.5452390795569
2026-09-21 21:48:25.778478848,1.4890947265624999,-6.021018066406249,7.9147060546875,-1.1387676821178823,-0.3568635860706179,0.41651839448839284,321.574762495264,349.92041924735463,123.86759809508543
2026-09-21 21:48:25.794145536,1.8266547851562498,-6.143114257812499,7.780639648437499,-1.1515508553502627,-0.36858149486696656,0.3877562547155371,320.86466099875054,349.90105700903393,124.17939186988762
2026-09-21 21:48:25.794145536,1.7404692382812499,-6.1862070312499995,7.677695800781249,-1.129180302193597,-0.32490565298966706,0.35792885050664963,320.1629752981352,349.8836011328456,124.46746163668952
2026-09-21 21:48:25.797859584,1.5082470703125,-6.353790039062499,7.766275390624999,-1.0929613113685193,-0.33236250404188894,0.3866909902795054,319.48298627798334,349.8833978470346,124.75694159465044
2026-09-21 21:48:25.798929408,1.8960820312499997,-6.6793798828124995,7.4718081054687495,-1.058872849415505,-0.3408846195301425,0.37071202373902995,318.81978800677996,349.8787850486324,125.05515788451484
2026-09-21 21:48:25.803069184,1.9415688476562498,-6.722472656249999,7.495748535156249,-1.034371767386776,-0.28868666216458944,0.31425300862935013,318.17725422116723,349.87152121288983,125.31376724809533
2026-09-21 21:48:25.803069184,1.85538330078125,-6.741624999999999,7.462231933593749,-0.9992180409977302,-0.25992452239173364,0.32384038855363534,317.55726732631,349.88124782832637,125.55415705529245
2026-09-21 21:48:25.810232832,1.8266547851562498,-6.813446289062499,7.311407226562499,-0.9587379924285258,-0.24074976254316313,0.3312972396058572,316.96038471490607,349.9058431648375,125.7929540364169
2026-09-21 21:48:25.827846912,1.7739858398437498,-6.83978076171875,7.270708496093749,-0.9416937614520187,-0.20879182946221228,0.32490565298966706,316.37950509346996,349.9432307180126,126.01798008518675
2026-09-21 21:48:25.827846912,1.6518896484374999,-6.84456884765625,7.28028466796875,-0.9129316216791629,-0.19813918510189532,0.3408846195301425,315.81371084694047,349.9957346764349,126.23787573549524
2026-09-21 21:48:25.841863680,1.6207670898437498,-7.0480624999999995,7.239585937499999,-0.9022789773188459,-0.21944447382252924,0.3387540906580791,315.25813711300003,350.0473452668811,126.46660741037086
2026-09-21 21:48:25.846823424,1.7308930664062498,-7.12227783203125,7.1390361328125,-0.8692557798018633,-0.19813918510189532,0.29614351321681126,314.7170327722795,350.0895021595468,126.67858065115188
2026-09-21 21:48:25.857879808,1.6949824218749998,-7.2611323242187495,7.0528505859375,-0.8873652752144021,-0.18535601186951497,0.2908171910366528,314.18119064715023,350.13533272494413,126.87260022369031
2026-09-21 21:48:25.857879808,1.79792626953125,-7.663331542968749,7.095943359374999,-0.845819962209166,-0.18961706961364175,0.2492718780314167,313.6543170848223,350.1688779720781,127.05831365272135
2026-09-21 21:48:25.874219008,1.8122905273437497,-7.917100097656249,7.021728027343749,-0.7968177981517081,-0.1565938720966592,0.19600865622983193,313.16377122734974,350.18952983492306,127.21221031696412
2026-09-21 21:48:25.889307904,1.8170786132812498,-8.187626953125,6.971453124999999,-0.7105313788331408,-0.12676646788777174,0.14700649217237394,312.718730161783,350.2055451232036,127.3322241019758
2026-09-21 21:48:25.905063680,1.7931381835937499,-8.448577636718749,6.775141601562499,-0.6402239260550489,-0.12357067457967666,0.111852765783328,312.3196714707775,350.21106314832554,127.43313149799299
2026-09-21 21:48:25.912792064,1.7572275390624998,-8.36957421875,6.818234374999999,-0.605070199666003,-0.12783173232380343,0.0681769239060285,311.94414426511344,350.1957120301954,127.52010035341809
2026-09-21 21:48:25.921219584,1.6231611328125,-8.22353759765625,6.744019042968749,-0.4676510874179142,-0.10652644360316953,0.06498113059793341,311.6369446047412,350.181343063521,127.59302054859458
2026-09-21 21:48:25.922421504,1.6231611328125,-8.17086865234375,6.79189990234375,-0.3856257258434737,-0.12676646788777174,0.09906959255094766,311.3861343220819,350.1791717202594,127.68057694169872
2026-09-21 21:48:25.937061376,1.714134765625,-7.8237324218749995,6.6506513671875,-0.3259709174256988,-0.14487596330031055,0.09587379924285258,311.1712941961719,350.17063186496944,127.78174163664937
2026-09-21 21:48:25.953017856,1.7332871093749997,-7.5771459960937495,6.741624999999999,-0.2769687533682408,-0.1384843766841204,0.05858954398174324,310.98965340536864,350.1487794780208,127.86932958622796
2026-09-21 21:48:25.954438912,1.7332871093749997,-7.416745117187499,6.708108398437499,-0.2663161090079238,-0.12889699675983513,0.022370553156665602,310.8276381438384,350.113142483528,127.93881262324581
2026-09-21 21:48:25.969091584,1.8769296874999999,-7.361682128906249,6.63389306640625,-0.2908171910366528,-0.09906959255094766,-0.01597896654047543,310.6591221934281,350.07072244694155,127.98315282223547
2026-09-21 21:48:25.969091584,2.0253603515624996,-7.344923828124999,6.47109814453125,-0.311057215321255,-0.06072007285380663,-0.05858954398174324,310.48383358878453,350.0204226903067,127.99493627738018
2026-09-21 21:48:25.984732928,2.06605908203125,-7.433503417968749,6.49025048828125,-0.32810144629776217,-0.012783173232380343,-0.06711165946999681,310.3027490913677,349.97870718060994,127.97971328082888
2026-09-21 21:48:26.000396800,1.9894497070312498,-7.6657255859374995,6.533343261718749,-0.3440804128382376,0.029827404208887468,-0.049002164057457984,310.11410355486936,349.95922065129093,127.94965552940373
2026-09-21 21:48:26.000396800,1.7189228515625,-7.902735839843749,6.63389306640625,-0.34834147058236437,0.03408846195301425,-0.039414784133172724,309.9202049314649,349.9541557805782,127.91718454799732
2026-09-21 21:48:26.016025344,1.64470751953125,-8.00807373046875,6.64825732421875,-0.3419498839661742,0.010652644360316953,-0.035153726389045944,309.7264461808571,349.946156754678,127.89506659029463
2026-09-21 21:48:26.016025344,1.64470751953125,-8.015255859375,6.672197753906249,-0.3259709174256988,-0.008522115488253563,-0.03834951969714103,309.53897346448593,349.9310342523889,127.88181801399138
2026-09-21 21:48:26.032980480,1.6279492187499998,-7.941040527343749,6.710502441406249,-0.3025350998330015,-0.03621899082507764,-0.04154531300523612,309.3632334994084,349.90454284582233,127.87973261645523
2026-09-21 21:48:26.049509888,1.74525732421875,-7.919494140624999,6.62910498046875,-0.28016454667633583,-0.0458063707493629,-0.05113269292952137,309.2010503987996,349.869200347454,127.88174652733632
2026-09-21 21:48:26.065475072,1.9798735351562498,-7.907523925781249,6.533343261718749,-0.26844663787998724,-0.03834951969714103,-0.08096009713840883,309.04806736162243,349.82287952289164,127.87346737622347
2026-09-21 21:48:26.065475072,2.2480063476562497,-7.7710634765624995,6.43758154296875,-0.2695119023160189,0.022370553156665602,-0.10013485698697935,308.90275531400823,349.7775057835197,127.83441851159176
2026-09-21 21:48:26.095672576,2.0612709960937496,-7.737546875,6.408853027343749,-0.27909928224030417,0.08309062601047223,-0.07243798165015528,308.7558532545241,349.7625243473856,127.77136475363194
2026-09-21 21:48:26.095672576,1.8482011718749998,-7.730364746093749,6.3968828124999995,-0.27909928224030417,0.09800432811491597,-0.03621899082507764,308.60727022093016,349.77554533649095,127.70959616317093
2026-09-21 21:48:26.119220480,1.6135849609375,-7.77345751953125,6.444763671874999,-0.27590348893220906,0.08841694819063071,-0.019174759848570515,308.458643190404,349.7996071646594,127.65757209838593
2026-09-21 21:48:26.127452160,1.4843066406249998,-7.79260986328125,6.387306640625,-0.27803401780427245,0.05645901510967985,-0.008522115488253563,308.30770790982,349.8208613258171,127.62234536496658
2026-09-21 21:48:26.127452160,1.4843066406249998,-7.804580078124999,6.3801245117187495,-0.28549086885649433,0.025566346464760685,-0.011717908796348648,308.14942240802446,349.83148029336314,127.60213952504539
2026-09-21 21:48:26.127452160,1.51303515625,-7.778245605468749,6.408853027343749,-0.2822950755483993,0.0,-0.01597896654047543,307.9907547712599,349.8301451390332,127.59216910343828
2026-09-21 21:48:26.143307776,1.6207670898437498,-7.93146435546875,6.40406494140625,-0.28442560442046266,-0.02769687533682408,-0.014913702104443734,307.83029808268543,349.8197604569129,127.59558973151047
2026-09-21 21:48:26.143307776,1.675830078125,-8.034408203124999,6.286756835937499,-0.29614351321681126,-0.04261057744126781,-0.025566346464760685,307.66258645195336,349.7974667286035,127.60470734904834
2026-09-21 21:48:26.158720256,1.7117407226562498,-8.0583486328125,6.27957470703125,-0.2822950755483993,-0.05539375067364816,-0.022370553156665602,307.49548271999663,349.7696297754157,127.61885289075641
2026-09-21 21:48:26.164474368,1.86017138671875,-8.127775878906249,6.2292998046875,-0.25992452239173364,-0.07030745277809189,-0.006391586616190171,307.33978599303214,349.7428526305946,127.64539042033199
2026-09-21 21:48:26.174615808,1.96550927734375,-8.15171630859375,6.214935546874999,-0.23861923367109975,-0.0681769239060285,-0.004261057744126781,307.19364498728737,349.71596460920557,127.67516129156671
2026-09-21 21:48:26.174615808,2.01339013671875,-8.132563964843749,6.2029653320312494,-0.21624868051443413,-0.05006742849348968,-0.0021305288720633907,307.06296317350836,349.694326264401,127.699292516898
2026-09-21 21:48:26.190408192,2.09478759765625,-8.1253818359375,6.167054687499999,-0.2002697139739587,-0.029827404208887468,0.0010652644360316954,306.94408795381713,349.68113920533506,127.71567177672438
2026-09-21 21:48:26.207097856,1.9822675781249999,-8.13735205078125,6.18860107421875,-0.18961706961364175,0.0,-0.0021305288720633907,306.83346749805924,349.6757726433927,127.718724756208
2026-09-21 21:48:26.224089600,1.8721416015624999,-8.199597167968749,6.195783203124999,-0.1757686319452297,0.01810949541253882,-0.0010652644360316954,306.73172850942046,349.67943426785456,127.71058003271992
2026-09-21 21:48:26.224898816,1.68780029296875,-8.237901855468749,6.2292998046875,-0.1629854587128494,0.012783173232380343,-0.006391586616190171,306.63843071122994,349.6843013365765,127.70058728144146
2026-09-21 21:48:26.238576896,1.6997705078124998,-8.20917333984375,6.214935546874999,-0.14913702104443735,-0.0021305288720633907,-0.01597896654047543,306.55251901880035,349.6811416921565,127.69444731425287
2026-09-21 21:48:26.238576896,1.75483349609375,-8.168474609375,6.195783203124999,-0.1352885833760253,-0.014913702104443734,-0.03195793308095086,306.4746753751659,349.6656447484578,127.68981200467263
2026-09-21 21:48:26.254956032,1.8314428710937498,-8.077500976562499,6.17423681640625,-0.12250541014364495,-0.02024002428460221,-0.03728425526110934,306.4045715822813,349.64289615604866,127.6850995281496
2026-09-21 21:48:26.269596160,1.8529892578124998,-7.9290703124999995,6.167054687499999,-0.11824435239951818,-0.025566346464760685,-0.035153726389045944,306.33877858000403,349.61874459442276,127.68313042794676
2026-09-21 21:48:26.269596160,1.85538330078125,-7.909917968749999,6.179024902343749,-0.11824435239951818,-0.023435817592697295,-0.03408846195301425,306.2741095042877,349.59428232097537,127.68151410927743
2026-09-21 21:48:26.285346048,1.90805224609375,-7.852460937499999,6.217329589843749,-0.12144014570761326,-0.01384843766841204,-0.02876213977285577,306.20926487204974,349.57412719888856,127.67734533524025
2026-09-21 21:48:26.318626048,1.829048828125,-7.924282226562499,6.2388759765624995,-0.12463593901570835,-0.005326322180158476,-0.01810949541253882,306.14280436780905,349.56087735890753,127.67223891179441
2026-09-21 21:48:26.318626048,1.8745356445312498,-8.072712890624999,6.195783203124999,-0.12250541014364495,0.009587379924285258,-0.007456851052221867,306.07658354991054,349.55771562619526,127.6646335052048
2026-09-21 21:48:26.318626048,1.8122905273437497,-8.17565673828125,6.138326171875,-0.1129180302193597,0.011717908796348648,0.004261057744126781,306.013396472345,349.5640457518822,127.65766801543323
2026-09-21 21:48:26.334127104,1.7284990234375,-8.216355468749999,6.15508447265625,-0.09267800593475749,0.0021305288720633907,0.012783173232380343,305.95856388768976,349.5721714668309,127.65776992819184
2026-09-21 21:48:26.334127104,1.6710419921875,-8.190020996093748,6.195783203124999,-0.07776430383031376,-0.017044230976507126,0.009587379924285258,305.912703054434,349.5754537187852,127.66631618208653
2026-09-21 21:48:26.349674752,1.8697475585937497,-8.07510693359375,6.14072021484375,-0.07563377495825037,-0.03728425526110934,-0.0021305288720633907,305.86878812468245,349.5674325891533,127.68186348855245
2026-09-21 21:48:26.349674752,1.8960820312499997,-8.03680224609375,6.176630859375,-0.08309062601047223,-0.029827404208887468,-0.01384843766841204,305.8233012311324,349.5512173322007,127.69071378899557
2026-09-21 21:48:26.364687104,1.7859560546874997,-8.0822890625,6.092839355468749,-0.0905474770626941,-0.043675841877299504,-0.007456851052221867,305.7721881930203,349.53344167231467,127.70491521317336
2026-09-21 21:48:26.380492288,1.7380751953124998,-8.1349580078125,6.119173828125,-0.08522115488253562,-0.05645901510967985,-0.010652644360316953,305.7201700296009,349.51215855701446,127.72602610088997
2026-09-21 21:48:26.384850688,1.8697475585937497,-8.12059375,6.042564453124999,-0.08415589044650393,-0.05219795736555307,-0.012783173232380343,305.6701111064766,349.4891161696324,127.74662434512938
2026-09-21 21:48:26.396522240,1.9726914062499998,-8.0583486328125,6.095233398437499,-0.07137271721412358,-0.03408846195301425,-0.006391586616190171,305.6270305458198,349.4716986404662,127.76152896556503
2026-09-21 21:48:26.412171520,1.9511450195312499,-8.060742675781249,6.162266601562499,-0.05858954398174324,-0.02024002428460221,0.0010652644360316954,305.5930887952297,349.46400898699295,127.77168222797529
2026-09-21 21:48:26.417653760,1.9152343749999998,-8.072712890624999,6.145508300781249,-0.04793689962142629,-0.011717908796348648,0.01384843766841204,305.56600494449344,349.4632381554424,127.78041429530073
2026-09-21 21:48:26.428251648,1.8673535156249998,-8.1253818359375,6.10241552734375,-0.03834951969714103,-0.006391586616190171,0.030892668644919165,305.5430517531648,349.47417665673197,127.79239146162932
2026-09-21 21:48:26.445387008,1.9319926757812498,-8.1541103515625,6.0808691406249995,-0.03408846195301425,-0.005326322180158476,0.023435817592697295,305.5229427513288,349.4847699045032,127.803936024223
2026-09-21 21:48:26.461615104,1.8793237304687498,-8.1253818359375,6.0282001953124995,-0.030892668644919165,0.0031957933080950856,0.019174759848570515,305.5062462919162,349.49421795568736,127.80853389976306
2026-09-21 21:48:26.494265088,1.8793237304687498,-8.0583486328125,6.090445312499999,-0.025566346464760685,-0.004261057744126781,0.03728425526110934,305.48948388253984,349.509452183879,127.8193595285917
2026-09-21 21:48:26.494265088,1.86495947265625,-8.10383544921875,6.1335380859374995,0.0,-0.012783173232380343,0.04048004856920442,305.4860646986183,349.525182177261,127.83798359497099
2026-09-21 21:48:26.507886848,1.9631152343749998,-8.02483203125,6.1502963867187495,0.0,-0.0031957933080950856,0.014913702104443734,305.4892398644532,349.53223972400025,127.84838553359002
2026-09-21 21:48:26.510442240,1.9535390624999998,-7.9817392578124995,6.025806152343749,0.0,0.006391586616190171,0.007456851052221867,305.4931231164078,349.5369490985954,127.84761844347126
2026-09-21 21:48:26.510442240,1.9032641601562499,-8.00328564453125,6.1048095703125,0.007456851052221867,0.01384843766841204,0.0021305288720633907,305.5008479067136,349.54274684491776,127.84212379613962
2026-09-21 21:48:26.510442240,1.9152343749999998,-7.9290703124999995,6.119173828125,0.011717908796348648,0.014913702104443734,-0.007456851052221867,305.5129940839064,349.5446702933602,127.83221852331889
2026-09-21 21:48:26.510442240,1.886505859375,-7.924282226562499,6.078475097656249,0.01384843766841204,0.011717908796348648,-0.01810949541253882,305.5279292460718,349.54105172823785,127.81908587088805
2026-09-21 21:48:26.525085184,1.9008701171874998,-8.02722607421875,6.143114257812499,0.005326322180158476,0.009587379924285258,-0.023435817592697295,305.539495274149,349.5333363866174,127.80496339731799
2026-09-21 21:48:26.540225536,1.8888999023437498,-8.132563964843749,6.179024902343749,0.005326322180158476,0.007456851052221867,-0.025566346464760685,305.5487031716302,349.52345146460493,127.79147216636763
2026-09-21 21:48:26.540225536,1.9248105468749999,-8.20438525390625,6.0473525390625,0.017044230976507126,0.021305288720633905,-0.02769687533682408,305.5627398337781,349.51677773333927,127.77294554402263
2026-09-21 21:48:26.559170048,1.7835620117187498,-8.144534179687499,6.114385742187499,0.044741106313331204,0.024501082028728992,-0.03621899082507764,305.5907533003003,349.50925096786773,127.7489847464741
2026-09-21 21:48:26.567249920,1.7931381835937499,-8.06313671875,6.205359375,0.0681769239060285,0.02024002428460221,-0.03834951969714103,305.6349503862943,349.49951798352737,127.72516065647676
2026-09-21 21:48:26.588612352,1.8434130859374998,-7.95061669921875,6.037776367187499,0.0692421883420602,0.02876213977285577,-0.03621899082507764,305.6844795410302,349.4915355457359,127.69905973166499
2026-09-21 21:48:26.595990016,1.8434130859374998,-7.883583496093749,6.06889892578125,0.07030745277809189,0.03621899082507764,-0.02663161090079238,305.732997634215,349.48972087854486,127.67126543100191
2026-09-21 21:48:26.602635264,1.7380751953124998,-7.871613281249999,6.1502963867187495,0.07243798165015528,0.03408846195301425,-0.012783173232380343,305.782969114533,349.4946976134012,127.64828508831015
2026-09-21 21:48:26.602635264,1.7308930664062498,-8.01286181640625,6.236481933593749,0.06178533728983833,0.025566346464760685,-0.014913702104443734,305.8280188493926,349.49887599454536,127.62977926236441
2026-09-21 21:48:26.618540032,1.8122905273437497,-8.178050781249999,6.2747866210937495,0.049002164057457984,0.024501082028728992,-0.024501082028728992,305.86531189419895,349.498812035125,127.60916125896786
2026-09-21 21:48:26.624652032,1.8122905273437497,-8.422243164062499,6.2580283203125,0.06285060172587002,0.022370553156665602,-0.02769687533682408,305.90463811401986,349.4956741086578,127.58811742605157
2026-09-21 21:48:26.638247424,1.8434130859374998,-8.56349169921875,6.2388759765624995,0.10972223691126462,0.021305288720633905,-0.035153726389045944,305.96503798891905,349.48900204862827,127.56596047392495
2026-09-21 21:48:26.640163584,1.8362309570312498,-8.561097656249999,6.28196875,0.17044230976507124,0.022370553156665602,-0.04793689962142629,306.0591101329145,349.4768548715465,127.54000425980773
2026-09-21 21:48:26.658191104,1.9295986328124999,-8.60658447265625,6.375336425781249,0.21837920938649752,0.025566346464760685,-0.05539375067364816,306.1838228857276,349.4616953213649,127.50949302338262
2026-09-21 21:48:26.666793216,2.0876054687499996,-8.848382812499999,6.547707519531249,0.27909928224030417,0.039414784133172724,-0.06072007285380663,306.3418256660531,349.44640111606793,127.4718776877819
2026-09-21 21:48:26.666793216,2.1881552734375,-9.26734033203125,6.68177392578125,0.3643204371228398,0.06711165946999681,-0.08735168375459901,306.5498573819535,349.4301825851786,127.41546853764645
2026-09-21 21:48:26.682484480,2.2264599609375,-9.825152343749998,6.356184082031249,0.40906154343617096,0.09906959255094766,-0.1331580545039619,306.7945781514496,349.40424466770367,127.33120010782442
2026-09-21 21:48:26.698132992,2.2360361328125,-10.2800205078125,5.94440869140625,0.3611246438147447,0.13422331893999362,-0.19920444953792701,307.022795948522,349.36585856871085,127.20974121790346
2026-09-21 21:48:26.704827392,1.829048828125,-9.928096191406249,5.513480957031249,0.3834951969714103,0.136353847812057,-0.27590348893220906,307.24378022208293,349.29410960562353,127.05768638504836
2026-09-21 21:48:26.719312384,1.51303515625,-8.683193847656248,5.43687158203125,0.5592638289166401,0.16405072314888108,-0.21198762277030736,307.5469822302948,349.24390018305166,126.90291354863952
2026-09-21 21:48:26.731362560,1.6016147460937498,-6.854145019531249,5.0993115234375,0.8255799379245639,0.18748654074157836,-0.11930961683554987,308.0047524726895,349.2518103215064,126.77070284901684
2026-09-21 21:48:26.740288000,1.3933330078125,-5.60924267578125,6.090445312499999,1.0088054209220154,0.11717908796348649,-0.12676646788777174,308.577294801494,349.24683450368843,126.66060178854433
2026-09-21 21:48:26.747063808,1.3430581054687498,-4.7832978515625,6.638681152343749,1.0748518159559806,0.039414784133172724,-0.0916127414987258,309.22417174505296,349.2228119944408,126.5934220233606
2026-09-21 21:48:26.753202944,1.42445556640625,-4.3427939453125,6.988211425781249,0.8617989287496415,0.039414784133172724,-0.06178533728983833,309.79107565139765,349.2067396504266,126.54672916615951
2026-09-21 21:48:26.768890112,1.3215117187499998,-4.560651855468749,7.191705078125,0.3515372638904594,0.0458063707493629,-0.035153726389045944,310.1108333807922,349.2062129668334,126.50376470273653
2026-09-21 21:48:26.777733376,1.3454521484375,-5.602060546874999,6.827810546874999,-0.0458063707493629,-0.005326322180158476,-0.0010652644360316954,310.1556305013588,349.20926525955423,126.49078325891153
2026-09-21 21:48:26.791722240,1.2736308593749999,-6.394488769531249,6.885267578124999,-0.15339807878856412,-0.049002164057457984,-0.01597896654047543,310.0889415389124,349.19545334645795,126.49780063534178
2026-09-21 21:48:26.803963136,1.3047534179687499,-7.0336982421875,6.77274755859375,-0.16831178089300786,-0.11717908796348649,-0.014913702104443734,309.99936138593824,349.15592930237744,126.53380373697036
2026-09-21 21:48:26.803963136,1.52979345703125,-7.61545068359375,6.918784179687499,-0.15020228548046904,-0.15020228548046904,-0.012783173232380343,309.904084867406,349.10372554479846,126.59147851222392
2026-09-21 21:48:26.835220992,1.75483349609375,-7.885977539062499,6.992999511718749,-0.10120012142301105,-0.2002697139739587,-0.039414784133172724,309.82940058078935,349.02570195514545,126.66194202899585
2026-09-21 21:48:26.835220992,2.2073076171875,-8.405484863281249,7.359288085937499,-0.08628641931856731,-0.21411815164237075,-0.0660463950339651,309.76211723459454,348.92108742675873,126.735848753155
2026-09-21 21:48:26.850835712,2.8297587890625,-9.13327392578125,7.117489746093749,-0.05113269292952137,-0.1374191122480887,-0.044741106313331204,309.72373277648694,348.8391348516512,126.7882955007104
2026-09-21 21:48:26.865022208,2.8536992187499997,-9.434923339843749,6.7368369140625,-0.03408846195301425,-0.024501082028728992,-0.022370553156665602,309.6908275334125,348.8000944166405,126.8007054613548
2026-09-21 21:48:26.882716160,2.5975366210937496,-9.281704589843748,6.425611328124999,0.136353847812057,0.0916127414987258,0.030892668644919165,309.73161118588195,348.8253967150253,126.77989220768092
2026-09-21 21:48:26.882716160,2.1115458984375,-8.101441406249998,6.368154296875,0.3675162304309349,0.1352885833760253,0.08628641931856731,309.9072031756246,348.90297100561025,126.75007475116938
2026-09-21 21:48:26.882716160,1.86495947265625,-7.0528505859375,6.75359521484375,0.4900216405745798,0.11504855909142309,0.0916127414987258,310.1797013276775,348.9871197350941,126.73125061648817
2026-09-21 21:48:26.882716160,1.6830122070312499,-6.428005371093749,6.8613271484375,0.41971418779648795,0.1374191122480887,0.07563377495825037,310.4515763180186,349.0725625827215,126.70211400415303
2026-09-21 21:48:26.898348544,1.6159790039062498,-5.918074218749999,6.6961381835937495,0.24288029141522652,0.1320927900679302,0.044741106313331204,310.6368204398361,349.14706837281494,126.65923460794457
2026-09-21 21:48:26.914113024,1.3167236328124998,-5.6643056640625,6.691350097656249,0.10439591473110614,0.08948221262666241,0.05752427954571154,310.73310999916987,349.2090528503684,126.63010495203365
2026-09-21 21:48:26.914113024,1.10844189453125,-5.678669921875,6.8373867187499995,0.03621899082507764,-0.009587379924285258,0.07137271721412358,310.77581239145786,349.25109889673803,126.64643053312426
2026-09-21 21:48:26.929902848,1.2401142578125,-6.021018066406249,7.0336982421875,-0.0681769239060285,-0.10439591473110614,0.0458063707493629,310.760003311362,349.2500877289418,126.70049021280228
2026-09-21 21:48:26.962045440,1.6040087890624999,-6.693744140624999,7.095943359374999,-0.2024002428460221,-0.16405072314888108,0.019174759848570515,310.662446539725,349.21050412810814,126.77406720259185
2026-09-21 21:48:26.962045440,1.9200224609374998,-7.416745117187499,6.9283603515625,-0.2673813734439555,-0.17257283863713463,0.01810949541253882,310.50973675157195,349.1547362907491,126.85474293674734
2026-09-21 21:48:26.962045440,2.1594267578124997,-8.13735205078125,6.7176845703125,-0.23968449810713144,-0.136353847812057,0.049002164057457984,310.35207198109094,349.1175911150604,126.93473959965151
2026-09-21 21:48:26.962045440,2.20012548828125,-8.632918945312499,6.693744140624999,-0.1374191122480887,-0.08522115488253562,0.0692421883420602,310.24167994874466,349.1086466045066,127.00321064021001
2026-09-21 21:48:26.977076480,2.16421484375,-8.70713427734375,6.691350097656249,0.02769687533682408,-0.035153726389045944,0.06285060172587002,310.2179418620931,349.1205397764757,127.04956491714736
2026-09-21 21:48:26.992876288,2.269552734375,-8.0487724609375,6.624316894531249,0.1587244009687226,0.023435817592697295,0.017044230976507126,310.2895440245463,349.13368689661615,127.05765790905933
2026-09-21 21:48:26.992876288,2.2910991210937497,-7.6824838867187495,6.672197753906249,0.21411815164237075,0.10439591473110614,-0.010652644360316953,310.41221267801166,349.1607542032676,127.01872502685376
2026-09-21 21:48:27.009315584,2.25279443359375,-7.500536621093749,6.811052246093749,0.22264026713062432,0.15978966540475428,-0.022370553156665602,310.55580580599883,349.20406886070725,126.94342784029523
2026-09-21 21:48:27.009315584,2.135486328125,-7.40477490234375,6.8565390625,0.23648870479903636,0.18642127630554667,-0.03834951969714103,310.710686199079,349.2529596349785,126.8492936527618
2026-09-21 21:48:27.041854720,2.1450625,-7.256344238281249,6.887661621093749,0.25566346464760686,0.19494339179380024,-0.023435817592697295,310.87754852355215,349.31010852217094,126.750025545131
2026-09-21 21:48:27.046034176,2.09478759765625,-7.28028466796875,6.923572265624999,0.2822950755483993,0.16192019427681767,-0.014913702104443734,311.05525467971796,349.3646344771564,126.66753040721731
2026-09-21 21:48:27.046034176,2.11872802734375,-7.232403808593749,7.0863671875,0.28549086885649433,0.14381069886427886,-0.008522115488253563,311.2385573828317,349.4134579741062,126.59793098951715
2026-09-21 21:48:27.057015808,2.1019697265625,-7.337741699218749,7.146218261718749,0.26844663787998724,0.1310275256318985,-0.03195793308095086,311.413751631519,349.45195856962323,126.52863941191178
2026-09-21 21:48:27.073478912,2.15703271484375,-7.426321289062499,7.064820800781249,0.2460760847233216,0.1374191122480887,-0.06391586616190172,311.57847931385623,349.47604231957206,126.44685633353856
2026-09-21 21:48:27.074808576,2.04211865234375,-7.4885664062499995,7.012151855468749,0.23755396923506805,0.1555286076606275,-0.07456851052221868,311.7357052615574,349.49980557622166,126.35121132312902
2026-09-21 21:48:27.087822592,1.90805224609375,-7.47659619140625,6.952300781249999,0.26312031569982874,0.16192019427681767,-0.07243798165015528,311.90233947792825,349.52783419589707,126.25110631739908
2026-09-21 21:48:27.103474688,1.97029736328125,-7.301831054687499,6.830204589843749,0.30146983539696975,0.1757686319452297,-0.0681769239060285,312.0917732297841,349.56391953775744,126.14863534825993
2026-09-21 21:48:27.106668800,1.9415688476562498,-7.098337402343749,6.87569140625,0.32170985968157195,0.2066613005901489,-0.08841694819063071,312.29710544904003,349.60282742599526,126.02946901876938
2026-09-21 21:48:27.120558592,1.829048828125,-7.081579101562499,6.93075439453125,0.3344930329139523,0.23009711818284617,-0.08202536157444054,312.51483236803983,349.6531336335411,125.89786453016684
2026-09-21 21:48:27.121648896,1.838625,-7.146218261718749,6.9953935546874995,0.3366235617860157,0.23861923367109975,-0.07776430383031376,312.7349721544735,349.71179655465284,125.76485342406492
2026-09-21 21:48:27.136486144,1.7835620117187498,-7.112701660156249,7.10312548828125,0.34301514840220587,0.25033714246744837,-0.08628641931856731,312.9588984923376,349.7730294298335,125.62352166679175
2026-09-21 21:48:27.151004416,1.8362309570312498,-7.1725527343749995,7.170158691406249,0.3643204371228398,0.23435817592697297,-0.08948221262666241,313.19270928820674,349.83008101507346,125.48560890800889
2026-09-21 21:48:27.151800576,1.8242607421875,-6.988211425781249,7.201281249999999,0.3802994036633152,0.21731394495046583,-0.09800432811491597,313.4374323492415,349.87709121563194,125.35212317212965
2026-09-21 21:48:27.166920960,1.9511450195312499,-6.5740419921874995,7.153400390624999,0.3749730814831567,0.2002697139739587,-0.11504855909142309,313.68164668242684,349.91107062362204,125.21988358164322
2026-09-21 21:48:27.199900416,2.1235161132812497,-6.12156787109375,7.270708496093749,0.35579832163458625,0.19068233404967347,-0.12996226119586682,313.92143662309536,349.9316597729931,125.08603320213061
2026-09-21 21:48:27.214419456,2.0157841796875,-5.884557617187499,7.2419799804687495,0.30466562870506486,0.19600865622983193,-0.1384843766841204,314.14057147813554,349.9474767208736,124.9467470108217
